File: 061824_MetOH_nC5_0.111w_0.2rate_nvo_cadinho.txt
Time	Temperature	Heat Flow (Normalized)
min	Â°C	W/g
11.5733	17.6995	-0.169640
11.6317	17.6883	-0.169545
11.69	17.6764	-0.169488
11.7483	17.6651	-0.169390
11.8067	17.654	-0.169304
11.865	17.642	-0.169226
11.9233	17.6302	-0.169131
11.9817	17.6178	-0.169029
12.04	17.6067	-0.169004
12.0983	17.5945	-0.168928
12.1567	17.5835	-0.168806
12.215	17.573	-0.168766
12.2733	17.5604	-0.168643
12.3317	17.549	-0.168587
12.39	17.5377	-0.168493
12.4483	17.525	-0.168454
12.5067	17.5143	-0.168335
12.565	17.5027	-0.168278
12.6233	17.4907	-0.168261
12.6817	17.4781	-0.168225
12.74	17.4666	-0.168154
12.7983	17.4555	-0.168106
12.8567	17.4444	-0.168092
12.915	17.4324	-0.168084
12.9733	17.4197	-0.168066
13.0317	17.4092	-0.167998
13.09	17.397	-0.167908
13.1483	17.3856	-0.167840
13.2067	17.374	-0.167769
13.265	17.3618	-0.167703
13.3233	17.3504	-0.167538
13.3817	17.3388	-0.167425
13.44	17.3277	-0.167316
13.4983	17.3149	-0.167227
13.5567	17.3046	-0.167210
13.615	17.2922	-0.167179
13.6733	17.28	-0.167158
13.7317	17.2699	-0.167094
13.79	17.2571	-0.167037
13.8483	17.2466	-0.166973
13.9067	17.234	-0.166902
13.965	17.2224	-0.166838
14.0233	17.2111	-0.166785
14.0817	17.1994	-0.166744
14.14	17.187	-0.166678
14.1983	17.1751	-0.166648
14.2567	17.1643	-0.166612
14.315	17.1529	-0.166555
14.3733	17.1412	-0.166521
14.4317	17.128	-0.166425
14.49	17.1171	-0.166353
14.5483	17.1072	-0.166285
14.6067	17.0947	-0.166242
14.665	17.082	-0.166238
14.7233	17.0709	-0.166162
14.7817	17.059	-0.166131
14.84	17.0482	-0.166077
14.8983	17.036	-0.166054
14.9567	17.0246	-0.166035
15.015	17.0132	-0.166017
15.0733	17.0009	-0.165968
15.1317	16.9892	-0.165895
15.19	16.978	-0.165817
15.2483	16.9658	-0.165788
15.3067	16.954	-0.165752
15.365	16.9423	-0.165756
15.4233	16.931	-0.165709
15.4817	16.9204	-0.165683
15.54	16.908	-0.165659
15.5983	16.8954	-0.165565
15.6567	16.8847	-0.165478
15.715	16.8724	-0.165387
15.7733	16.8624	-0.165318
15.8317	16.8499	-0.165231
15.89	16.8396	-0.165174
15.9483	16.8263	-0.165130
16.0067	16.8146	-0.165103
16.065	16.8029	-0.165047
16.1233	16.7921	-0.164934
16.1817	16.7801	-0.164888
16.24	16.7689	-0.164833
16.2983	16.7569	-0.164772
16.3567	16.7451	-0.164714
16.415	16.7335	-0.164667
16.4733	16.7211	-0.164619
16.5317	16.7094	-0.164575
16.59	16.6983	-0.164547
16.6483	16.6865	-0.164539
16.7067	16.6751	-0.164464
16.765	16.6633	-0.164491
16.8233	16.6511	-0.164532
16.8817	16.6393	-0.164578
16.94	16.6284	-0.164583
16.9983	16.6157	-0.164555
17.0567	16.6054	-0.164492
17.115	16.5928	-0.164376
17.1733	16.5812	-0.164295
17.2317	16.5694	-0.164212
17.29	16.5588	-0.164156
17.3483	16.5469	-0.164175
17.4067	16.5359	-0.164137
17.465	16.5241	-0.164150
17.5233	16.5121	-0.164085
17.5817	16.4999	-0.163991
17.64	16.4883	-0.163926
17.6983	16.4762	-0.163868
17.7567	16.4653	-0.163798
17.815	16.4535	-0.163718
17.8733	16.4425	-0.163629
17.9317	16.4307	-0.163572
17.99	16.4194	-0.163501
18.0483	16.4077	-0.163418
18.1067	16.3963	-0.163374
18.165	16.3837	-0.163276
18.2233	16.3721	-0.163226
18.2817	16.3603	-0.163171
18.34	16.3485	-0.163150
18.3983	16.3378	-0.163140
18.4567	16.3245	-0.163156
18.515	16.313	-0.163098
18.5733	16.3023	-0.163022
18.6317	16.2904	-0.162942
18.69	16.2794	-0.162874
18.7483	16.2676	-0.162819
18.8067	16.2557	-0.162771
18.865	16.2436	-0.162653
18.9233	16.2326	-0.162622
18.9817	16.2203	-0.162598
19.04	16.2091	-0.162528
19.0983	16.1973	-0.162485
19.1567	16.1855	-0.162456
19.215	16.174	-0.162426
19.2733	16.1621	-0.162390
19.3317	16.1509	-0.162355
19.39	16.1401	-0.162425
19.4483	16.1272	-0.162455
19.5067	16.1148	-0.162468
19.565	16.1035	-0.162375
19.6233	16.093	-0.162340
19.6817	16.0803	-0.162311
19.74	16.069	-0.162241
19.7983	16.0568	-0.162169
19.8567	16.0462	-0.162064
19.915	16.0338	-0.162010
19.9733	16.0223	-0.161935
20.0317	16.0112	-0.161877
20.09	15.9998	-0.161816
20.1483	15.9881	-0.161779
20.2067	15.9758	-0.161790
20.265	15.9639	-0.161765
20.3233	15.953	-0.161743
20.3817	15.9412	-0.161696
20.44	15.9289	-0.161646
20.4983	15.9168	-0.161570
20.5567	15.9067	-0.161508
20.615	15.8943	-0.161462
20.6733	15.8825	-0.161411
20.7317	15.8713	-0.161343
20.79	15.8607	-0.161277
20.8483	15.8483	-0.161263
20.9067	15.8364	-0.161224
20.965	15.8249	-0.161194
21.0233	15.8126	-0.161124
21.0817	15.8017	-0.161100
21.14	15.7894	-0.161077
21.1983	15.7785	-0.161030
21.2567	15.7661	-0.160986
21.315	15.755	-0.160961
21.3733	15.7436	-0.160898
21.4317	15.7315	-0.160854
21.49	15.7201	-0.160860
21.5483	15.7068	-0.160834
21.6067	15.6963	-0.160904
21.665	15.6843	-0.161053
21.7233	15.6725	-0.161162
21.7817	15.6612	-0.161151
21.84	15.6501	-0.161103
21.8983	15.6396	-0.161015
21.9567	15.6265	-0.160977
22.015	15.6149	-0.160899
22.0733	15.6025	-0.160818
22.1317	15.5916	-0.160759
22.19	15.5802	-0.160645
22.2483	15.5683	-0.160581
22.3067	15.5562	-0.160583
22.365	15.5441	-0.160512
22.4233	15.5333	-0.160457
22.4817	15.5217	-0.160433
22.54	15.5098	-0.160352
22.5983	15.4975	-0.160262
22.6567	15.4868	-0.160136
22.715	15.4753	-0.160128
22.7733	15.4631	-0.160210
22.8317	15.4523	-0.160251
22.89	15.4399	-0.160248
22.9483	15.4294	-0.160198
23.0067	15.417	-0.160144
23.065	15.4048	-0.160014
23.1233	15.3934	-0.159965
23.1817	15.3816	-0.159922
23.24	15.3705	-0.159810
23.2983	15.3586	-0.159683
23.3567	15.3471	-0.159565
23.415	15.3354	-0.159505
23.4733	15.3244	-0.159394
23.5317	15.312	-0.159346
23.59	15.3014	-0.159273
23.6483	15.2873	-0.159254
23.7067	15.2771	-0.159153
23.765	15.2653	-0.159106
23.8233	15.2528	-0.159090
23.8817	15.2409	-0.159139
23.94	15.2298	-0.159093
23.9983	15.2182	-0.159081
24.0567	15.2067	-0.159083
24.115	15.1951	-0.159034
24.1733	15.1842	-0.159052
24.2317	15.1711	-0.159019
24.29	15.1606	-0.159002
24.3483	15.1487	-0.158947
24.4067	15.1367	-0.158943
24.465	15.1262	-0.158879
24.5233	15.114	-0.158814
24.5817	15.1017	-0.158758
24.64	15.0911	-0.158679
24.6983	15.0783	-0.158663
24.7567	15.0668	-0.158626
24.815	15.0548	-0.158567
24.8733	15.0432	-0.158536
24.9317	15.031	-0.158467
24.99	15.0209	-0.158409
25.0483	15.0084	-0.158412
25.1067	14.9974	-0.158383
25.165	14.9854	-0.158353
25.2233	14.9741	-0.158314
25.2817	14.9616	-0.158249
25.34	14.9508	-0.158200
25.3983	14.939	-0.158235
25.4567	14.9285	-0.158287
25.515	14.9157	-0.158369
25.5733	14.9026	-0.158369
25.6317	14.8921	-0.158316
25.69	14.8809	-0.158234
25.7483	14.8686	-0.158156
25.8067	14.859	-0.158084
25.865	14.8457	-0.158010
25.9233	14.834	-0.157920
25.9817	14.8232	-0.157891
26.04	14.8104	-0.157948
26.0983	14.7998	-0.157912
26.1567	14.7883	-0.157850
26.215	14.7756	-0.157776
26.2733	14.7646	-0.157700
26.3317	14.7519	-0.157628
26.39	14.7406	-0.157604
26.4483	14.7294	-0.157532
26.5067	14.7176	-0.157465
26.565	14.7059	-0.157386
26.6233	14.6933	-0.157312
26.6817	14.6824	-0.157281
26.74	14.6705	-0.157327
26.7983	14.6594	-0.157342
26.8567	14.6482	-0.157336
26.915	14.636	-0.157247
26.9733	14.6248	-0.157154
27.0317	14.6132	-0.157071
27.09	14.6006	-0.157002
27.1483	14.5901	-0.156900
27.2067	14.5777	-0.156834
27.265	14.5658	-0.156756
27.3233	14.5551	-0.156731
27.3817	14.5438	-0.156667
27.44	14.5317	-0.156634
27.4983	14.5201	-0.156596
27.5567	14.5079	-0.156538
27.615	14.4969	-0.156479
27.6733	14.4855	-0.156459
27.7317	14.473	-0.156427
27.79	14.4612	-0.156420
27.8483	14.4505	-0.156395
27.9067	14.4378	-0.156321
27.965	14.4266	-0.156297
28.0233	14.4147	-0.156251
28.0817	14.4029	-0.156215
28.14	14.3908	-0.156121
28.1983	14.3805	-0.156108
28.2567	14.3679	-0.156091
28.315	14.3545	-0.156063
28.3733	14.3446	-0.156011
28.4317	14.3336	-0.155964
28.49	14.322	-0.155925
28.5483	14.3099	-0.155877
28.6067	14.2983	-0.155878
28.665	14.2859	-0.155993
28.7233	14.2741	-0.156116
28.7817	14.2625	-0.156203
28.84	14.2516	-0.156238
28.8983	14.2395	-0.156195
28.9567	14.2276	-0.156118
29.015	14.2162	-0.156077
29.0733	14.2054	-0.156049
29.1317	14.1932	-0.156005
29.19	14.1805	-0.155942
29.2483	14.1693	-0.155839
29.3067	14.1588	-0.155781
29.365	14.1474	-0.155687
29.4233	14.1353	-0.155624
29.4817	14.1236	-0.155581
29.54	14.1121	-0.155548
29.5983	14.0997	-0.155465
29.6567	14.0892	-0.155452
29.715	14.0766	-0.155407
29.7733	14.0655	-0.155394
29.8317	14.0534	-0.155379
29.89	14.0425	-0.155361
29.9483	14.0303	-0.155342
30.0067	14.019	-0.155349
30.065	14.0064	-0.156421
30.1233	13.9935	-0.157691
30.1817	13.9807	-0.158151
30.24	13.9706	-0.158309
30.2983	13.9586	-0.158317
30.3567	13.9481	-0.158176
30.415	13.9364	-0.157975
30.4733	13.9236	-0.157752
30.5317	13.913	-0.157476
30.59	13.9016	-0.157227
30.6483	13.89	-0.156984
30.7067	13.8775	-0.156771
30.765	13.8667	-0.156552
30.8233	13.854	-0.156348
30.8817	13.843	-0.156194
30.94	13.8316	-0.156100
30.9983	13.8189	-0.155992
31.0567	13.8086	-0.155917
31.115	13.7959	-0.155854
31.1733	13.7852	-0.155730
31.2317	13.7729	-0.155612
31.29	13.7628	-0.155512
31.3483	13.7506	-0.155429
31.4067	13.7383	-0.155338
31.465	13.7258	-0.155284
31.5233	13.7154	-0.155206
31.5817	13.7029	-0.155125
31.64	13.692	-0.155054
31.6983	13.68	-0.155015
31.7567	13.6698	-0.154943
31.815	13.6569	-0.154870
31.8733	13.6456	-0.154810
31.9317	13.6333	-0.154756
31.99	13.6232	-0.154682
32.0483	13.6111	-0.154628
32.1067	13.5986	-0.154570
32.165	13.586	-0.154530
32.2233	13.5747	-0.154494
32.2817	13.5643	-0.154522
32.34	13.5508	-0.154496
32.3983	13.5395	-0.154488
32.4567	13.5287	-0.154393
32.515	13.5166	-0.154337
32.5733	13.5056	-0.154319
32.6317	13.4936	-0.154247
32.69	13.4819	-0.154219
32.7483	13.4705	-0.154144
32.8067	13.4585	-0.154125
32.865	13.4471	-0.154046
32.9233	13.4362	-0.153991
32.9817	13.4236	-0.153913
33.04	13.4123	-0.153823
33.0983	13.4022	-0.153769
33.1567	13.3887	-0.153710
33.215	13.3776	-0.153589
33.2733	13.3656	-0.153527
33.3317	13.3552	-0.153452
33.39	13.3407	-0.153391
33.4483	13.3318	-0.153324
33.5067	13.3196	-0.153264
33.565	13.3081	-0.153159
33.6233	13.2966	-0.153147
33.6817	13.2846	-0.153138
33.74	13.2727	-0.153068
33.7983	13.2613	-0.153037
33.8567	13.2501	-0.152988
33.915	13.2375	-0.152882
33.9733	13.2255	-0.152748
34.0317	13.2142	-0.152668
34.09	13.2033	-0.152581
34.1483	13.1908	-0.152542
34.2067	13.179	-0.152417
34.265	13.168	-0.152354
34.3233	13.1564	-0.152318
34.3817	13.1455	-0.152273
34.44	13.1336	-0.152226
34.4983	13.1208	-0.152181
34.5567	13.1103	-0.152142
34.615	13.0977	-0.152169
34.6733	13.0863	-0.152199
34.7317	13.0735	-0.152186
34.79	13.0631	-0.152148
34.8483	13.0527	-0.152133
34.9067	13.0406	-0.152137
34.965	13.0283	-0.152112
35.0233	13.0164	-0.152053
35.0817	13.0052	-0.151935
35.14	12.9929	-0.151840
35.1983	12.9822	-0.151810
35.2567	12.9697	-0.151749
35.315	12.9576	-0.151663
35.3733	12.9459	-0.151581
35.4317	12.9356	-0.151590
35.49	12.9241	-0.151547
35.5483	12.9118	-0.151467
35.6067	12.9004	-0.151431
35.665	12.8882	-0.151423
35.7233	12.8763	-0.151375
35.7817	12.8646	-0.151357
35.84	12.8532	-0.151334
35.8983	12.8418	-0.151299
35.9567	12.8304	-0.151285
36.015	12.818	-0.151201
36.0733	12.8064	-0.151095
36.1317	12.7942	-0.151051
36.19	12.783	-0.151025
36.2483	12.7715	-0.151021
36.3067	12.7606	-0.151015
36.365	12.7487	-0.150968
36.4233	12.7357	-0.150921
36.4817	12.7255	-0.150848
36.54	12.7137	-0.150830
36.5983	12.7013	-0.150777
36.6567	12.6904	-0.150717
36.715	12.6788	-0.150665
36.7733	12.6666	-0.150698
36.8317	12.6548	-0.150734
36.89	12.6439	-0.150778
36.9483	12.6322	-0.150749
37.0067	12.6203	-0.150719
37.065	12.6089	-0.150674
37.1233	12.5982	-0.150610
37.1817	12.5855	-0.150540
37.24	12.5732	-0.150521
37.2983	12.562	-0.150488
37.3567	12.5505	-0.150500
37.415	12.538	-0.150526
37.4733	12.5274	-0.150505
37.5317	12.5151	-0.150448
37.59	12.5036	-0.150355
37.6483	12.4926	-0.150288
37.7067	12.4806	-0.150276
37.765	12.4692	-0.150191
37.8233	12.4568	-0.150153
37.8817	12.4456	-0.150194
37.94	12.4332	-0.150187
37.9983	12.4218	-0.150122
38.0567	12.4102	-0.150049
38.115	12.3989	-0.149991
38.1733	12.3885	-0.149940
38.2317	12.3752	-0.149881
38.29	12.3631	-0.149823
38.3483	12.3524	-0.149743
38.4067	12.3399	-0.149672
38.465	12.3288	-0.149592
38.5233	12.3172	-0.149555
38.5817	12.3064	-0.149577
38.64	12.2941	-0.149546
38.6983	12.282	-0.149485
38.7567	12.2703	-0.149394
38.815	12.2588	-0.149368
38.8733	12.2483	-0.149307
38.9317	12.2351	-0.149259
38.99	12.2247	-0.149276
39.0483	12.2125	-0.149300
39.1067	12.2002	-0.149245
39.165	12.19	-0.149215
39.2233	12.1764	-0.149198
39.2817	12.1662	-0.149164
39.34	12.1536	-0.149161
39.3983	12.1422	-0.149116
39.4567	12.1321	-0.149145
39.515	12.1185	-0.149198
39.5733	12.1073	-0.149149
39.6317	12.0955	-0.149071
39.69	12.0849	-0.149038
39.7483	12.0731	-0.148976
39.8067	12.0616	-0.148890
39.865	12.049	-0.148874
39.9233	12.0371	-0.148844
39.9817	12.0261	-0.148858
40.04	12.0146	-0.148824
40.0983	12.0022	-0.148785
40.1567	11.9909	-0.148713
40.215	11.9791	-0.148672
40.2733	11.968	-0.148664
40.3317	11.9576	-0.148695
40.39	11.9446	-0.148647
40.4483	11.9328	-0.148597
40.5067	11.9211	-0.148545
40.565	11.9102	-0.148613
40.6233	11.898	-0.148616
40.6817	11.886	-0.148616
40.74	11.8764	-0.148582
40.7983	11.8628	-0.148582
40.8567	11.8521	-0.148527
40.915	11.8392	-0.148455
40.9733	11.8281	-0.148400
41.0317	11.8165	-0.148368
41.09	11.8037	-0.148543
41.1483	11.7916	-0.148684
41.2067	11.7817	-0.148689
41.265	11.7699	-0.148620
41.3233	11.758	-0.148531
41.3817	11.7453	-0.148406
41.44	11.7351	-0.148276
41.4983	11.7228	-0.148195
41.5567	11.712	-0.148112
41.615	11.6987	-0.147996
41.6733	11.6873	-0.147956
41.7317	11.6759	-0.147880
41.79	11.6648	-0.147853
41.8483	11.6534	-0.147853
41.9067	11.6419	-0.147835
41.965	11.6294	-0.147798
42.0233	11.6186	-0.147797
42.0817	11.6065	-0.147763
42.14	11.5946	-0.147721
42.1983	11.5838	-0.147677
42.2567	11.5711	-0.147662
42.315	11.5599	-0.147619
42.3733	11.5474	-0.147561
42.4317	11.5359	-0.147644
42.49	11.5247	-0.147716
42.5483	11.5132	-0.147806
42.6067	11.5012	-0.147864
42.665	11.4897	-0.147863
42.7233	11.4783	-0.147846
42.7817	11.4663	-0.147821
42.84	11.4548	-0.147809
42.8983	11.4445	-0.147738
42.9567	11.4311	-0.147699
43.015	11.4198	-0.147629
43.0733	11.4089	-0.147544
43.1317	11.3956	-0.147463
43.19	11.3849	-0.147395
43.2483	11.3741	-0.147313
43.3067	11.3611	-0.147278
43.365	11.3503	-0.147190
43.4233	11.3383	-0.147124
43.4817	11.3266	-0.147070
43.54	11.3135	-0.147005
43.5983	11.3031	-0.146943
43.6567	11.2929	-0.146906
43.715	11.2802	-0.146844
43.7733	11.2693	-0.146833
43.8317	11.2572	-0.146863
43.89	11.2452	-0.146847
43.9483	11.2347	-0.146829
44.0067	11.2212	-0.146782
44.065	11.21	-0.146720
44.1233	11.1989	-0.146656
44.1817	11.1872	-0.146604
44.24	11.1754	-0.146559
44.2983	11.1649	-0.146492
44.3567	11.1521	-0.146440
44.415	11.1403	-0.146389
44.4733	11.1291	-0.146344
44.5317	11.1173	-0.146294
44.59	11.1056	-0.146307
44.6483	11.0927	-0.146300
44.7067	11.0818	-0.146252
44.765	11.0712	-0.146238
44.8233	11.0588	-0.146201
44.8817	11.0466	-0.146149
44.94	11.0352	-0.146117
44.9983	11.0242	-0.146060
45.0567	11.0121	-0.146034
45.115	11.0012	-0.146030
45.1733	10.9883	-0.146021
45.2317	10.9763	-0.145962
45.29	10.9642	-0.145930
45.3483	10.9539	-0.145892
45.4067	10.9424	-0.145840
45.465	10.9299	-0.145797
45.5233	10.918	-0.145757
45.5817	10.9078	-0.145752
45.64	10.8963	-0.145716
45.6983	10.8841	-0.145729
45.7567	10.8705	-0.145695
45.815	10.8605	-0.145675
45.8733	10.8482	-0.145674
45.9317	10.8367	-0.145690
45.99	10.8249	-0.145708
46.0483	10.8142	-0.145663
46.1067	10.8026	-0.145613
46.165	10.7902	-0.145596
46.2233	10.779	-0.145580
46.2817	10.7672	-0.145582
46.34	10.7562	-0.145529
46.3983	10.7438	-0.145485
46.4567	10.7329	-0.145415
46.515	10.7209	-0.145356
46.5733	10.7083	-0.145433
46.6317	10.6961	-0.147917
46.69	10.6826	-0.150230
46.7483	10.6707	-0.150959
46.8067	10.6601	-0.151420
46.865	10.648	-0.151577
46.9233	10.637	-0.151849
46.9817	10.6242	-0.152327
47.04	10.6131	-0.152568
47.0983	10.6021	-0.152394
47.1567	10.5898	-0.151921
47.215	10.5785	-0.151348
47.2733	10.5674	-0.150698
47.3317	10.5561	-0.149966
47.39	10.5443	-0.149342
47.4483	10.5327	-0.148708
47.5067	10.522	-0.148128
47.565	10.5103	-0.147604
47.6233	10.4989	-0.147188
47.6817	10.4874	-0.146822
47.74	10.4754	-0.146518
47.7983	10.4635	-0.146275
47.8567	10.4516	-0.146056
47.915	10.4403	-0.145964
47.9733	10.429	-0.145846
48.0317	10.4182	-0.145731
48.09	10.4058	-0.145733
48.1483	10.3945	-0.145692
48.2067	10.3819	-0.145558
48.265	10.3713	-0.145428
48.3233	10.3596	-0.145301
48.3817	10.3483	-0.145287
48.44	10.3363	-0.145164
48.4983	10.3241	-0.145052
48.5567	10.3124	-0.144942
48.615	10.3012	-0.144862
48.6733	10.2899	-0.144814
48.7317	10.2778	-0.144811
48.79	10.2653	-0.144993
48.8483	10.2537	-0.145108
48.9067	10.2423	-0.145206
48.965	10.2302	-0.145276
49.0233	10.2188	-0.145254
49.0817	10.2082	-0.145186
49.14	10.1955	-0.145123
49.1983	10.1837	-0.145031
49.2567	10.1731	-0.144945
49.315	10.1599	-0.144851
49.3733	10.1483	-0.144757
49.4317	10.1379	-0.144644
49.49	10.1251	-0.144737
49.5483	10.1145	-0.144858
49.6067	10.1028	-0.144825
49.665	10.0904	-0.144748
49.7233	10.0794	-0.144638
49.7817	10.0668	-0.144540
49.84	10.0563	-0.144468
49.8983	10.0445	-0.144382
49.9567	10.0323	-0.144288
50.015	10.0219	-0.144208
50.0733	10.0093	-0.144163
50.1317	9.997821	-0.144153
50.19	9.986264	-0.144136
50.2483	9.975307	-0.144098
50.3067	9.964037	-0.144065
50.365	9.951474	-0.143967
50.4233	9.939735	-0.143874
50.4817	9.928342	-0.143924
50.54	9.915727	-0.143963
50.5983	9.905152	-0.143972
50.6567	9.893285	-0.143908
50.715	9.880692	-0.143991
50.7733	9.870056	-0.144011
50.8317	9.857188	-0.144033
50.89	9.846714	-0.143964
50.9483	9.834142	-0.143886
51.0067	9.822543	-0.143758
51.065	9.810788	-0.143670
51.1233	9.799823	-0.143598
51.1817	9.788632	-0.143592
51.24	9.776607	-0.143697
51.2983	9.765258	-0.143711
51.3567	9.753284	-0.143653
51.415	9.741091	-0.143633
51.4733	9.730849	-0.143519
51.5317	9.718177	-0.143445
51.59	9.706413	-0.143368
51.6483	9.694799	-0.143275
51.7067	9.683860	-0.143237
51.765	9.671204	-0.143197
51.8233	9.659293	-0.143136
51.8817	9.648938	-0.143080
51.94	9.636704	-0.143052
51.9983	9.624363	-0.142993
52.0567	9.611997	-0.142921
52.115	9.601109	-0.142892
52.1733	9.589717	-0.142825
52.2317	9.578645	-0.142730
52.29	9.566247	-0.142693
52.3483	9.555787	-0.142622
52.4067	9.543502	-0.142590
52.465	9.530935	-0.142545
52.5233	9.519918	-0.142499
52.5817	9.508973	-0.142518
52.64	9.497152	-0.142488
52.6983	9.484128	-0.142505
52.7567	9.473135	-0.142500
52.815	9.462187	-0.142453
52.8733	9.449738	-0.142441
52.9317	9.438830	-0.142430
52.99	9.426165	-0.142422
53.0483	9.414985	-0.142412
53.1067	9.403219	-0.142402
53.165	9.391970	-0.142393
53.2233	9.379683	-0.142341
53.2817	9.367342	-0.142294
53.34	9.356637	-0.142222
53.3983	9.345173	-0.142184
53.4567	9.333096	-0.142209
53.515	9.322226	-0.142184
53.5733	9.309645	-0.142150
53.6317	9.298300	-0.142093
53.69	9.287605	-0.142009
53.7483	9.274483	-0.141953
53.8067	9.262275	-0.141900
53.865	9.251332	-0.141874
53.9233	9.239693	-0.141844
53.9817	9.226763	-0.141839
54.04	9.216830	-0.141826
54.0983	9.205404	-0.141812
54.1567	9.193331	-0.141818
54.215	9.182181	-0.141798
54.2733	9.170864	-0.141792
54.3317	9.158670	-0.141797
54.39	9.146856	-0.141788
54.4483	9.134215	-0.141797
54.5067	9.123376	-0.141755
54.565	9.110319	-0.141699
54.6233	9.099782	-0.141652
54.6817	9.088652	-0.141608
54.74	9.076835	-0.141535
54.7983	9.065576	-0.141491
54.8567	9.053667	-0.141444
54.915	9.040923	-0.141406
54.9733	9.029985	-0.141361
55.0317	9.017783	-0.141327
55.09	9.007474	-0.141304
55.1483	8.994565	-0.141290
55.2067	8.983626	-0.141228
55.265	8.971557	-0.141217
55.3233	8.960502	-0.141203
55.3817	8.949176	-0.141198
55.44	8.936764	-0.141182
55.4983	8.925292	-0.141133
55.5567	8.913328	-0.141113
55.615	8.901373	-0.141055
55.6733	8.891452	-0.141016
55.7317	8.879752	-0.141003
55.79	8.866883	-0.140978
55.8483	8.854376	-0.140942
55.9067	8.842477	-0.140913
55.965	8.832002	-0.140906
56.0233	8.819020	-0.140889
56.0817	8.808620	-0.140855
56.14	8.796714	-0.140860
56.1983	8.785933	-0.140862
56.2567	8.773260	-0.140823
56.315	8.762127	-0.140763
56.3733	8.751310	-0.140743
56.4317	8.739658	-0.140740
56.49	8.727729	-0.140712
56.5483	8.716410	-0.140720
56.6067	8.703967	-0.140646
56.665	8.691504	-0.140617
56.7233	8.680709	-0.140556
56.7817	8.669229	-0.140522
56.84	8.657649	-0.140511
56.8983	8.646678	-0.140507
56.9567	8.634323	-0.140499
57.015	8.622657	-0.140496
57.0733	8.610079	-0.140442
57.1317	8.598548	-0.140406
57.19	8.587276	-0.140383
57.2483	8.576163	-0.140381
57.3067	8.563765	-0.140392
57.365	8.552767	-0.140349
57.4233	8.540672	-0.140323
57.4817	8.529036	-0.140286
57.54	8.517857	-0.140269
57.5983	8.504926	-0.140212
57.6567	8.494409	-0.140143
57.715	8.481150	-0.140100
57.7733	8.470234	-0.140081
57.8317	8.458893	-0.139999
57.89	8.446586	-0.139994
57.9483	8.434672	-0.139982
58.0067	8.422801	-0.139941
58.065	8.412356	-0.139891
58.1233	8.400999	-0.139892
58.1817	8.389106	-0.139837
58.24	8.377872	-0.139834
58.2983	8.366583	-0.139852
58.3567	8.355119	-0.139847
58.415	8.343769	-0.139859
58.4733	8.331336	-0.139881
58.5317	8.319293	-0.139829
58.59	8.307260	-0.139787
58.6483	8.296544	-0.139737
58.7067	8.283998	-0.139727
58.765	8.272104	-0.139700
58.8233	8.261865	-0.139675
58.8817	8.250135	-0.139626
58.94	8.237869	-0.139585
58.9983	8.225648	-0.139567
59.0567	8.214334	-0.139540
59.115	8.203230	-0.139532
59.1733	8.190810	-0.139525
59.2317	8.178630	-0.139518
59.29	8.167678	-0.139500
59.3483	8.157122	-0.139497
59.4067	8.144135	-0.139493
59.465	8.132750	-0.139443
59.5233	8.121189	-0.139402
59.5817	8.110441	-0.139356
59.64	8.097724	-0.139356
59.6983	8.086394	-0.139399
59.7567	8.075095	-0.139394
59.815	8.062622	-0.139371
59.8733	8.050547	-0.139292
59.9317	8.039015	-0.139255
59.99	8.027247	-0.139170
60.0483	8.015272	-0.139108
60.1067	8.003843	-0.139060
60.165	7.992462	-0.139047
60.2233	7.981559	-0.139087
60.2817	7.969596	-0.139066
60.34	7.958679	-0.139083
60.3983	7.946568	-0.139049
60.4567	7.935257	-0.139017
60.515	7.923576	-0.139008
60.5733	7.910989	-0.138964
60.6317	7.899626	-0.138909
60.69	7.887183	-0.138847
60.7483	7.876881	-0.138862
60.8067	7.864391	-0.138848
60.865	7.853659	-0.138805
60.9233	7.840958	-0.138788
60.9817	7.829840	-0.138788
61.04	7.818316	-0.138749
61.0983	7.806067	-0.138725
61.1567	7.794686	-0.138686
61.215	7.783566	-0.138695
61.2733	7.771679	-0.138708
61.3317	7.759395	-0.138671
61.39	7.747931	-0.138646
61.4483	7.736063	-0.138611
61.5067	7.725019	-0.138594
61.565	7.712847	-0.138535
61.6233	7.701944	-0.138536
61.6817	7.689229	-0.138546
61.74	7.677589	-0.138514
61.7983	7.666605	-0.138517
61.8567	7.654357	-0.138513
61.915	7.642090	-0.138460
61.9733	7.631815	-0.138379
62.0317	7.620553	-0.138331
62.09	7.607781	-0.138351
62.1483	7.597521	-0.138320
62.2067	7.585658	-0.138306
62.265	7.573698	-0.138258
62.3233	7.561936	-0.138218
62.3817	7.550170	-0.138177
62.44	7.538075	-0.138162
62.4983	7.526634	-0.138100
62.5567	7.514803	-0.138055
62.615	7.502425	-0.138046
62.6733	7.490249	-0.138006
62.7317	7.479751	-0.138009
62.79	7.469455	-0.137975
62.8483	7.456537	-0.137971
62.9067	7.445523	-0.137969
62.965	7.433908	-0.137934
63.0233	7.421501	-0.137914
63.0817	7.409111	-0.137911
63.14	7.398374	-0.137929
63.1983	7.387576	-0.137910
63.2567	7.374498	-0.137901
63.315	7.362503	-0.137839
63.3733	7.351757	-0.137771
63.4317	7.338843	-0.137741
63.49	7.327714	-0.137674
63.5483	7.316270	-0.137604
63.6067	7.304905	-0.137610
63.665	7.293410	-0.137589
63.7233	7.281404	-0.137536
63.7817	7.270626	-0.137462
63.84	7.258715	-0.137484
63.8983	7.247953	-0.137430
63.9567	7.234857	-0.137423
64.015	7.223609	-0.137446
64.0733	7.210507	-0.137418
64.1317	7.200118	-0.137407
64.19	7.188474	-0.137353
64.2483	7.177001	-0.137368
64.3067	7.166289	-0.137333
64.365	7.153506	-0.137314
64.4233	7.141800	-0.137287
64.4817	7.130254	-0.137323
64.54	7.118439	-0.137311
64.5983	7.107346	-0.137293
64.6567	7.094727	-0.137263
64.715	7.083432	-0.137258
64.7733	7.071490	-0.137252
64.8317	7.060526	-0.137212
64.89	7.048697	-0.137162
64.9483	7.038211	-0.137162
65.0067	7.025957	-0.137128
65.065	7.013542	-0.137105
65.1233	7.003091	-0.137039
65.1817	6.990462	-0.136994
65.24	6.978488	-0.136981
65.2983	6.966074	-0.136952
65.3567	6.955194	-0.136913
65.415	6.943819	-0.136902
65.4733	6.932549	-0.136911
65.5317	6.920184	-0.136903
65.59	6.907934	-0.136845
65.6483	6.897474	-0.136808
65.7067	6.885519	-0.136789
65.765	6.874113	-0.136770
65.8233	6.861856	-0.136774
65.8817	6.850770	-0.136786
65.94	6.839429	-0.136829
65.9983	6.826251	-0.136799
66.0567	6.815146	-0.136728
66.115	6.804485	-0.136677
66.1733	6.792990	-0.136652
66.2317	6.779704	-0.136631
66.29	6.769107	-0.136551
66.3483	6.757047	-0.136566
66.4067	6.745223	-0.136529
66.465	6.733963	-0.136487
66.5233	6.722287	-0.136484
66.5817	6.710607	-0.136433
66.64	6.699595	-0.136381
66.6983	6.686816	-0.136386
66.7567	6.675511	-0.136386
66.815	6.664116	-0.136306
66.8733	6.653006	-0.136292
66.9317	6.641474	-0.136306
66.99	6.629131	-0.136284
67.0483	6.617805	-0.136319
67.1067	6.606188	-0.136243
67.165	6.595178	-0.136212
67.2233	6.581894	-0.136220
67.2817	6.569893	-0.136146
67.34	6.559474	-0.136068
67.3983	6.546807	-0.136066
67.4567	6.536200	-0.136052
67.515	6.523337	-0.136062
67.5733	6.512835	-0.136039
67.6317	6.500850	-0.136018
67.69	6.489316	-0.135974
67.7483	6.477416	-0.135971
67.8067	6.466661	-0.135930
67.865	6.454359	-0.135937
67.9233	6.443025	-0.135905
67.9817	6.430597	-0.135873
68.04	6.419439	-0.135811
68.0983	6.406539	-0.135820
68.1567	6.395742	-0.135768
68.215	6.383633	-0.135807
68.2733	6.373328	-0.135772
68.3317	6.361305	-0.135727
68.39	6.348584	-0.135746
68.4483	6.337565	-0.135702
68.5067	6.326176	-0.135641
68.565	6.314026	-0.135607
68.6233	6.302378	-0.135621
68.6817	6.290845	-0.135598
68.74	6.277925	-0.135535
68.7983	6.266630	-0.135474
68.8567	6.256546	-0.135436
68.915	6.243456	-0.135398
68.9733	6.231954	-0.135374
69.0317	6.220969	-0.135330
69.09	6.209203	-0.135304
69.1483	6.197379	-0.135299
69.2067	6.185593	-0.135272
69.265	6.174539	-0.135265
69.3233	6.163287	-0.135257
69.3817	6.151076	-0.135236
69.44	6.139248	-0.135274
69.4983	6.127916	-0.135239
69.5567	6.116767	-0.135258
69.615	6.104808	-0.135241
69.6733	6.093179	-0.135279
69.7317	6.080643	-0.135252
69.79	6.069483	-0.135228
69.8483	6.057311	-0.135225
69.9067	6.046475	-0.135177
69.965	6.034949	-0.135108
70.0233	6.021933	-0.135077
70.0817	6.010777	-0.135078
70.14	5.999800	-0.135033
70.1983	5.986261	-0.134985
70.2567	5.976628	-0.134934
70.315	5.963596	-0.134962
70.3733	5.952881	-0.134924
70.4317	5.941553	-0.134914
70.49	5.929340	-0.134853
70.5483	5.917804	-0.134777
70.6067	5.906174	-0.134755
70.665	5.894789	-0.134724
70.7233	5.882491	-0.134672
70.7817	5.871743	-0.134679
70.84	5.860352	-0.134671
70.8983	5.848431	-0.134623
70.9567	5.835681	-0.134582
71.015	5.824350	-0.134524
71.0733	5.813349	-0.134522
71.1317	5.801424	-0.134521
71.19	5.789468	-0.134504
71.2483	5.777802	-0.134505
71.3067	5.766939	-0.134479
71.365	5.754987	-0.134473
71.4233	5.743165	-0.134417
71.4817	5.730824	-0.134404
71.54	5.718929	-0.134329
71.5983	5.708256	-0.134265
71.6567	5.696287	-0.134252
71.715	5.683978	-0.134236
71.7733	5.672644	-0.134165
71.8317	5.661748	-0.134148
71.89	5.649389	-0.134156
71.9483	5.638354	-0.134095
72.0067	5.625997	-0.134074
72.065	5.614553	-0.134082
72.1233	5.603057	-0.134067
72.1817	5.591649	-0.134072
72.24	5.579439	-0.134038
72.2983	5.567849	-0.134005
72.3567	5.556447	-0.134029
72.415	5.544367	-0.134012
72.4733	5.532818	-0.133995
72.5317	5.522465	-0.133970
72.59	5.510080	-0.133956
72.6483	5.498753	-0.133934
72.7067	5.486128	-0.133892
72.765	5.474710	-0.133871
72.8233	5.463326	-0.133862
72.8817	5.451195	-0.133732
72.94	5.439557	-0.133736
72.9983	5.427736	-0.133739
73.0567	5.416986	-0.133723
73.115	5.405279	-0.133691
73.1733	5.392726	-0.133669
73.2317	5.380754	-0.133592
73.29	5.370339	-0.133600
73.3483	5.358094	-0.133576
73.4067	5.346895	-0.133560
73.465	5.335876	-0.133544
73.5233	5.323047	-0.133532
73.5817	5.310743	-0.133492
73.64	5.300133	-0.133442
73.6983	5.288807	-0.133427
73.7567	5.276196	-0.133418
73.815	5.264246	-0.133388
73.8733	5.253246	-0.133361
73.9317	5.242753	-0.133341
73.99	5.229629	-0.133360
74.0483	5.217698	-0.133356
74.1067	5.207117	-0.133290
74.165	5.194849	-0.133302
74.2233	5.184204	-0.133285
74.2817	5.171851	-0.133297
74.34	5.159541	-0.133295
74.3983	5.148593	-0.133304
74.4567	5.135950	-0.133265
74.515	5.124825	-0.133200
74.5733	5.113652	-0.133201
74.6317	5.101446	-0.133205
74.69	5.089872	-0.133163
74.7483	5.077970	-0.133232
74.8067	5.066473	-0.133255
74.865	5.055330	-0.133255
74.9233	5.043577	-0.133217
74.9817	5.030746	-0.134468
75.04	5.014265	-0.153632
75.0983	4.999532	-0.158955
75.1567	4.988180	-0.156900
75.215	4.978891	-0.150970
75.2733	4.968802	-0.145853
75.3317	4.958385	-0.143349
75.39	4.948366	-0.142375
75.4483	4.936318	-0.141583
75.5067	4.923562	-0.140621
75.565	4.913385	-0.139668
75.6233	4.902418	-0.139000
75.6817	4.890735	-0.138420
75.74	4.879536	-0.137819
75.7983	4.867037	-0.137331
75.8567	4.855765	-0.136883
75.915	4.844308	-0.136493
75.9733	4.833940	-0.136131
76.0317	4.821838	-0.135817
76.09	4.809366	-0.135538
76.1483	4.798379	-0.135280
76.2067	4.785796	-0.135065
76.265	4.774660	-0.134875
76.3233	4.763836	-0.134703
76.3817	4.750817	-0.134555
76.44	4.739267	-0.134390
76.4983	4.727908	-0.134283
76.5567	4.715813	-0.134179
76.615	4.704543	-0.134117
76.6733	4.692975	-0.134008
76.7317	4.682404	-0.133932
76.79	4.670201	-0.133843
76.8483	4.656954	-0.133785
76.9067	4.646816	-0.133740
76.965	4.636141	-0.133727
77.0233	4.624130	-0.133655
77.0817	4.611571	-0.133560
77.14	4.599553	-0.133552
77.1983	4.589367	-0.133488
77.2567	4.576002	-0.133421
77.315	4.565095	-0.133363
77.3733	4.554966	-0.133320
77.4317	4.541464	-0.133304
77.49	4.529886	-0.133250
77.5483	4.516762	-0.133231
77.6067	4.505911	-0.133191
77.665	4.495224	-0.133130
77.7233	4.482466	-0.133084
77.7817	4.472235	-0.133057
77.84	4.460315	-0.133058
77.8983	4.448222	-0.133016
77.9567	4.435923	-0.132956
78.015	4.425859	-0.132916
78.0733	4.414528	-0.132875
78.1317	4.401926	-0.132817
78.19	4.389769	-0.132799
78.2483	4.379467	-0.132731
78.3067	4.367433	-0.132671
78.365	4.355527	-0.132669
78.4233	4.343951	-0.132638
78.4817	4.330887	-0.132601
78.54	4.320180	-0.132551
78.5983	4.309537	-0.132544
78.6567	4.296289	-0.132559
78.715	4.284534	-0.132543
78.7733	4.274175	-0.132523
78.8317	4.261975	-0.132531
78.89	4.250321	-0.132556
78.9483	4.238525	-0.132485
79.0067	4.227053	-0.132497
79.065	4.215117	-0.132469
79.1233	4.204686	-0.132410
79.1817	4.192461	-0.132385
79.24	4.180419	-0.132317
79.2983	4.169597	-0.132265
79.3567	4.156108	-0.132246
79.415	4.145099	-0.132222
79.4733	4.133601	-0.132172
79.5317	4.122118	-0.132208
79.59	4.110645	-0.132171
79.6483	4.098532	-0.132109
79.7067	4.087689	-0.132078
79.765	4.074858	-0.132030
79.8233	4.064882	-0.131976
79.8817	4.052585	-0.131937
79.94	4.040493	-0.131952
79.9983	4.029075	-0.131907
80.0567	4.017960	-0.131907
80.115	4.005920	-0.131868
80.1733	3.994210	-0.131910
80.2317	3.983353	-0.131894
80.29	3.970453	-0.131875
80.3483	3.959806	-0.131839
80.4067	3.947836	-0.131833
80.465	3.936213	-0.131823
80.5233	3.924222	-0.131791
80.5817	3.912060	-0.131791
80.64	3.901320	-0.131707
80.6983	3.888968	-0.131654
80.7567	3.876262	-0.131626
80.815	3.865908	-0.131596
80.8733	3.853921	-0.131575
80.9317	3.843277	-0.131621
80.99	3.831122	-0.131572
81.0483	3.818822	-0.131517
81.1067	3.807340	-0.131471
81.165	3.795827	-0.131470
81.2233	3.782557	-0.131460
81.2817	3.772797	-0.131420
81.34	3.761620	-0.131372
81.3983	3.748738	-0.131329
81.4567	3.738050	-0.131298
81.515	3.726188	-0.131230
81.5733	3.715069	-0.131193
81.6317	3.704054	-0.131214
81.69	3.690840	-0.131199
81.7483	3.679970	-0.131171
81.8067	3.667505	-0.131136
81.865	3.654989	-0.131152
81.9233	3.644187	-0.131126
81.9817	3.633397	-0.131116
82.04	3.620868	-0.131093
82.0983	3.610301	-0.131081
82.1567	3.598420	-0.131078
82.215	3.585345	-0.131047
82.2733	3.574125	-0.131007
82.3317	3.562276	-0.131001
82.39	3.552042	-0.130969
82.4483	3.539026	-0.130958
82.5067	3.527232	-0.130948
82.565	3.514996	-0.130959
82.6233	3.503336	-0.131021
82.6817	3.492946	-0.131121
82.74	3.481246	-0.131214
82.7983	3.468303	-0.131227
82.8567	3.457514	-0.131192
82.915	3.446083	-0.131110
82.9733	3.435286	-0.131024
83.0317	3.423856	-0.130867
83.09	3.411314	-0.130826
83.1483	3.400171	-0.130744
83.2067	3.387313	-0.130677
83.265	3.377453	-0.130637
83.3233	3.364458	-0.130557
83.3817	3.352234	-0.130536
83.44	3.341300	-0.130450
83.4983	3.329419	-0.130402
83.5567	3.318832	-0.130412
83.615	3.306709	-0.130358
83.6733	3.293510	-0.130322
83.7317	3.283157	-0.130268
83.79	3.271750	-0.130224
83.8483	3.259296	-0.130197
83.9067	3.247527	-0.130104
83.965	3.235403	-0.130113
84.0233	3.225148	-0.130109
84.0817	3.213409	-0.130137
84.14	3.202032	-0.130123
84.1983	3.190238	-0.130114
84.2567	3.178633	-0.130117
84.315	3.167063	-0.130053
84.3733	3.154916	-0.130053
84.4317	3.142849	-0.130020
84.49	3.131806	-0.129957
84.5483	3.120761	-0.129964
84.6067	3.107328	-0.129975
84.665	3.096002	-0.129980
84.7233	3.084811	-0.129961
84.7817	3.073488	-0.129903
84.84	3.061321	-0.129896
84.8983	3.049274	-0.129879
84.9567	3.038755	-0.129857
85.015	3.027286	-0.129873
85.0733	3.015476	-0.129847
85.1317	3.002862	-0.129821
85.19	2.990770	-0.129788
85.2483	2.980605	-0.129749
85.3067	2.968210	-0.129723
85.365	2.956603	-0.129707
85.4233	2.944656	-0.129646
85.4817	2.933321	-0.129628
85.54	2.922478	-0.129604
85.5983	2.911648	-0.129596
85.6567	2.897909	-0.129592
85.715	2.887328	-0.129515
85.7733	2.875922	-0.129535
85.8317	2.863181	-0.129512
85.89	2.851961	-0.129502
85.9483	2.839964	-0.129457
86.0067	2.828704	-0.129466
86.065	2.816465	-0.129479
86.1233	2.804498	-0.129458
86.1817	2.793105	-0.129439
86.24	2.781430	-0.129420
86.2983	2.769391	-0.129388
86.3567	2.758469	-0.129366
86.415	2.745927	-0.129329
86.4733	2.736140	-0.129326
86.5317	2.723327	-0.129336
86.59	2.711494	-0.129284
86.6483	2.700314	-0.129260
86.7067	2.689213	-0.129268
86.765	2.677103	-0.129221
86.8233	2.665492	-0.129194
86.8817	2.653622	-0.129172
86.94	2.642509	-0.129144
86.9983	2.631155	-0.129090
87.0567	2.619171	-0.129097
87.115	2.607832	-0.129075
87.1733	2.595287	-0.129018
87.2317	2.584026	-0.129037
87.29	2.571379	-0.129005
87.3483	2.561026	-0.128982
87.4067	2.548128	-0.128967
87.465	2.536859	-0.128941
87.5233	2.525063	-0.128828
87.5817	2.513126	-0.128815
87.64	2.501578	-0.128806
87.6983	2.489842	-0.128814
87.7567	2.478874	-0.128746
87.815	2.466282	-0.128752
87.8733	2.455249	-0.128764
87.9317	2.443629	-0.128719
87.99	2.432062	-0.128707
88.0483	2.420061	-0.128671
88.1067	2.408393	-0.128668
88.165	2.397286	-0.128642
88.2233	2.385036	-0.128629
88.2817	2.373158	-0.128670
88.34	2.361559	-0.128680
88.3983	2.350674	-0.128673
88.4567	2.338477	-0.128656
88.515	2.326453	-0.128620
88.5733	2.315920	-0.128599
88.6317	2.303450	-0.128544
88.69	2.291731	-0.128534
88.7483	2.281782	-0.128526
88.8067	2.269205	-0.128517
88.865	2.257372	-0.128480
88.9233	2.245512	-0.128457
88.9817	2.232965	-0.128407
89.04	2.222739	-0.128397
89.0983	2.210075	-0.128339
89.1567	2.198512	-0.128358
89.215	2.187024	-0.128328
89.2733	2.175575	-0.128360
89.3317	2.163810	-0.128358
89.39	2.152838	-0.128393
89.4483	2.140559	-0.128376
89.5067	2.130172	-0.128357
89.565	2.117684	-0.128338
89.6233	2.106468	-0.128262
89.6817	2.094266	-0.128249
89.74	2.081722	-0.128278
89.7983	2.071177	-0.128236
89.8567	2.059971	-0.128192
89.915	2.047369	-0.128186
89.9733	2.036850	-0.128194
90.0317	2.023727	-0.128156
90.09	2.012432	-0.128162
90.1483	2.001257	-0.128183
90.2067	1.990430	-0.128171
90.265	1.977350	-0.128201
90.3233	1.966936	-0.128185
90.3817	1.953559	-0.128184
90.44	1.943335	-0.128198
90.4983	1.931033	-0.128157
90.5567	1.918675	-0.128123
90.615	1.908382	-0.128094
90.6733	1.895025	-0.128072
90.7317	1.884558	-0.128027
90.79	1.872316	-0.127986
90.8483	1.860777	-0.127980
90.9067	1.849451	-0.127986
90.965	1.837439	-0.127985
91.0233	1.825617	-0.127940
91.0817	1.813989	-0.127887
91.14	1.803085	-0.127865
91.1983	1.790614	-0.127840
91.2567	1.780564	-0.127864
91.315	1.767128	-0.127876
91.3733	1.755908	-0.127916
91.4317	1.744310	-0.127912
91.49	1.732714	-0.127859
91.5483	1.719526	-0.127853
91.6067	1.709129	-0.127813
91.665	1.698281	-0.127773
91.7233	1.685455	-0.127725
91.7817	1.674760	-0.127703
91.84	1.663529	-0.127704
91.8983	1.651239	-0.127672
91.9567	1.639490	-0.127643
92.015	1.627629	-0.127581
92.0733	1.615530	-0.127509
92.1317	1.603520	-0.127485
92.19	1.592654	-0.127489
92.2483	1.580375	-0.127515
92.3067	1.568908	-0.127491
92.365	1.558371	-0.127466
92.4233	1.546001	-0.127435
92.4817	1.535477	-0.127416
92.54	1.522282	-0.127389
92.5983	1.510765	-0.127361
92.6567	1.498971	-0.127338
92.715	1.487570	-0.127302
92.7733	1.476142	-0.127308
92.8317	1.465465	-0.127334
92.89	1.452796	-0.127366
92.9483	1.441783	-0.127341
93.0067	1.430354	-0.127370
93.065	1.417753	-0.127354
93.1233	1.406042	-0.127340
93.1817	1.394712	-0.127319
93.24	1.382508	-0.127327
93.2983	1.371981	-0.127297
93.3567	1.359191	-0.127290
93.415	1.348048	-0.127291
93.4733	1.336312	-0.127259
93.5317	1.325083	-0.127260
93.59	1.313416	-0.127224
93.6483	1.301190	-0.127186
93.7067	1.289104	-0.127165
93.765	1.278247	-0.127161
93.8233	1.266308	-0.127126
93.8817	1.255205	-0.127070
93.94	1.243117	-0.127089
93.9983	1.230500	-0.127009
94.0567	1.219527	-0.126954
94.115	1.206999	-0.126861
94.1733	1.196481	-0.126878
94.2317	1.183685	-0.126857
94.29	1.173260	-0.126866
94.3483	1.161699	-0.126839
94.4067	1.150581	-0.126816
94.465	1.138208	-0.126813
94.5233	1.126228	-0.126807
94.5817	1.115010	-0.126791
94.64	1.102705	-0.126808
94.6983	1.090922	-0.126811
94.7567	1.079083	-0.126821
94.815	1.068227	-0.126811
94.8733	1.055841	-0.126758
94.9317	1.044583	-0.126709
94.99	1.032606	-0.126697
95.0483	1.021368	-0.126691
95.1067	1.010196	-0.126671
95.165	0.998244	-0.126651
95.2233	0.986832	-0.126600
95.2817	0.975033	-0.126599
95.34	0.962473	-0.126592
95.3983	0.951721	-0.126533
95.4567	0.939556	-0.126506
95.515	0.928566	-0.126465
95.5733	0.915349	-0.126491
95.6317	0.904266	-0.126486
95.69	0.893841	-0.126466
95.7483	0.881181	-0.126459
95.8067	0.869259	-0.126444
95.865	0.857678	-0.126468
95.9233	0.845563	-0.126469
95.9817	0.834573	-0.126470
96.04	0.822497	-0.126466
96.0983	0.811371	-0.126470
96.1567	0.798842	-0.126421
96.215	0.787302	-0.126352
96.2733	0.776377	-0.126333
96.3317	0.764889	-0.126323
96.39	0.752836	-0.126313
96.4483	0.740597	-0.126265
96.5067	0.730126	-0.126258
96.565	0.717644	-0.126255
96.6233	0.706491	-0.126226
96.6817	0.695411	-0.126230
96.74	0.683189	-0.126226
96.7983	0.671144	-0.126215
96.8567	0.659796	-0.126254
96.915	0.648617	-0.126254
96.9733	0.636543	-0.126244
97.0317	0.624712	-0.126270
97.09	0.612539	-0.126271
97.1483	0.600980	-0.126230
97.2067	0.590337	-0.126185
97.265	0.577228	-0.126171
97.3233	0.566135	-0.126128
97.3817	0.554743	-0.126127
97.44	0.543331	-0.126073
97.4983	0.531065	-0.126077
97.5567	0.520386	-0.126003
97.615	0.508200	-0.125974
97.6733	0.496721	-0.125985
97.7317	0.485226	-0.125950
97.79	0.472354	-0.125957
97.8483	0.461582	-0.126005
97.9067	0.450339	-0.126015
97.9417	0.443772	-0.126040