File: 240614_metoh_nc5_0.111w_0.2rate.txt
Time	Temperature	Heat Flow (Normalized)
min	Â°C	W/g
28.2683	17.3853	-0.070098
28.3267	17.3737	-0.070060
28.385	17.3617	-0.070052
28.4433	17.3514	-0.070024
28.5017	17.3395	-0.070020
28.56	17.3276	-0.070027
28.6183	17.3158	-0.070022
28.6767	17.3038	-0.070052
28.735	17.2921	-0.070040
28.7933	17.2809	-0.070007
28.8517	17.269	-0.069981
28.91	17.256	-0.069986
28.9683	17.2446	-0.070019
29.0267	17.2339	-0.070039
29.085	17.2231	-0.070055
29.1433	17.2107	-0.070057
29.2017	17.1986	-0.070030
29.26	17.1872	-0.069991
29.3183	17.1757	-0.069998
29.3767	17.1642	-0.069978
29.435	17.1528	-0.069967
29.4933	17.1403	-0.069984
29.5517	17.1294	-0.069968
29.61	17.1174	-0.069948
29.6683	17.1061	-0.069931
29.7267	17.0935	-0.069912
29.785	17.0816	-0.069925
29.8433	17.0699	-0.069951
29.9017	17.0595	-0.069972
29.96	17.0477	-0.069964
30.0183	17.0361	-0.069974
30.0767	17.0236	-0.069995
30.135	17.0121	-0.070029
30.1933	17.0009	-0.070052
30.2517	16.9893	-0.070061
30.31	16.9771	-0.070050
30.3683	16.965	-0.070003
30.4267	16.9543	-0.070006
30.485	16.9417	-0.069974
30.5433	16.9297	-0.069965
30.6017	16.9192	-0.069977
30.66	16.9078	-0.069999
30.7183	16.8955	-0.070015
30.7767	16.8834	-0.070016
30.835	16.8717	-0.070017
30.8933	16.8617	-0.069999
30.9517	16.8495	-0.070004
31.01	16.8374	-0.069995
31.0683	16.826	-0.069981
31.1267	16.815	-0.069923
31.185	16.8032	-0.069899
31.2433	16.791	-0.069905
31.3017	16.7788	-0.069946
31.36	16.766	-0.069944
31.4183	16.7567	-0.069934
31.4767	16.7436	-0.069897
31.535	16.7318	-0.069900
31.5933	16.72	-0.069904
31.6517	16.7094	-0.069888
31.71	16.6984	-0.069876
31.7683	16.6851	-0.069882
31.8267	16.6748	-0.069890
31.885	16.6628	-0.069879
31.9433	16.6512	-0.069852
32.0017	16.6397	-0.069835
32.06	16.6275	-0.069777
32.1183	16.6154	-0.069727
32.1767	16.6034	-0.069672
32.235	16.5923	-0.069617
32.2933	16.5811	-0.069589
32.3517	16.5696	-0.069593
32.41	16.5573	-0.069567
32.4683	16.5464	-0.069551
32.5267	16.5349	-0.069522
32.585	16.5231	-0.069487
32.6433	16.5105	-0.069456
32.7017	16.4984	-0.069448
32.76	16.487	-0.069461
32.8183	16.4762	-0.069521
32.8767	16.4651	-0.069564
32.935	16.4526	-0.069621
32.9933	16.4414	-0.069649
33.0517	16.4301	-0.069685
33.11	16.4173	-0.069685
33.1683	16.4069	-0.069679
33.2267	16.394	-0.069678
33.285	16.3831	-0.069679
33.3433	16.3706	-0.069700
33.4017	16.3584	-0.069745
33.46	16.3476	-0.069749
33.5183	16.3356	-0.069758
33.5767	16.3245	-0.069759
33.635	16.3116	-0.069746
33.6933	16.3011	-0.069741
33.7517	16.2898	-0.069753
33.81	16.2778	-0.069741
33.8683	16.2653	-0.069720
33.9267	16.2544	-0.069697
33.985	16.2423	-0.069687
34.0433	16.2304	-0.069723
34.1017	16.2192	-0.069723
34.16	16.2069	-0.069729
34.2183	16.1949	-0.069706
34.2767	16.1842	-0.069681
34.335	16.1723	-0.069693
34.3933	16.1606	-0.069675
34.4517	16.1489	-0.069677
34.51	16.1377	-0.069653
34.5683	16.1259	-0.069653
34.6267	16.1138	-0.069659
34.685	16.1032	-0.069673
34.7433	16.0908	-0.069685
34.8017	16.0788	-0.069676
34.86	16.0667	-0.069658
34.9183	16.0551	-0.069623
34.9767	16.044	-0.069595
35.035	16.0325	-0.069573
35.0933	16.0212	-0.069550
35.1517	16.0087	-0.069565
35.21	15.9972	-0.069534
35.2683	15.9862	-0.069534
35.3267	15.9745	-0.069503
35.385	15.9627	-0.069491
35.4433	15.9513	-0.069478
35.5017	15.9387	-0.069484
35.56	15.9278	-0.069484
35.6183	15.9155	-0.069492
35.6767	15.9033	-0.069478
35.735	15.8924	-0.069507
35.7933	15.8807	-0.069490
35.8517	15.869	-0.069485
35.91	15.8586	-0.069498
35.9683	15.8463	-0.069519
36.0267	15.8342	-0.069540
36.085	15.8218	-0.069544
36.1433	15.8115	-0.069527
36.2017	15.8004	-0.069527
36.26	15.7884	-0.069502
36.3183	15.7761	-0.069461
36.3767	15.7649	-0.069428
36.435	15.7526	-0.069419
36.4933	15.7399	-0.069412
36.5517	15.7307	-0.069427
36.61	15.7174	-0.069442
36.6683	15.7054	-0.069463
36.7267	15.6937	-0.069445
36.785	15.6833	-0.069419
36.8433	15.6704	-0.069398
36.9017	15.6594	-0.069376
36.96	15.6477	-0.069358
37.0183	15.6367	-0.069346
37.0767	15.6249	-0.069330
37.135	15.6124	-0.069337
37.1933	15.6018	-0.069346
37.2517	15.5898	-0.069342
37.31	15.578	-0.069342
37.3683	15.5662	-0.069318
37.4267	15.5552	-0.069330
37.485	15.5427	-0.069340
37.5433	15.5311	-0.069340
37.6017	15.5189	-0.069363
37.66	15.5081	-0.069336
37.7183	15.496	-0.069314
37.7767	15.4842	-0.069345
37.835	15.4731	-0.069371
37.8933	15.4611	-0.069359
37.9517	15.4487	-0.069377
38.01	15.4364	-0.069369
38.0683	15.4262	-0.069350
38.1267	15.4148	-0.069341
38.185	15.4025	-0.069325
38.2433	15.3912	-0.069311
38.3017	15.3789	-0.069326
38.36	15.3663	-0.069347
38.4183	15.3553	-0.069343
38.4767	15.3452	-0.069346
38.535	15.3324	-0.069377
38.5933	15.3207	-0.069358
38.6517	15.3095	-0.069371
38.71	15.2964	-0.069377
38.7683	15.286	-0.069357
38.8267	15.2741	-0.069373
38.885	15.2639	-0.069390
38.9433	15.2509	-0.069367
39.0017	15.24	-0.069348
39.06	15.2268	-0.069321
39.1183	15.2169	-0.069346
39.1767	15.2043	-0.069344
39.235	15.1912	-0.069348
39.2933	15.1812	-0.069326
39.3517	15.17	-0.069356
39.41	15.1574	-0.069373
39.4683	15.1465	-0.069364
39.5267	15.1344	-0.069381
39.585	15.1227	-0.069398
39.6433	15.1126	-0.069389
39.7017	15.1002	-0.069409
39.76	15.0875	-0.069392
39.8183	15.0758	-0.069362
39.8767	15.0642	-0.069341
39.935	15.0522	-0.069338
39.9933	15.0396	-0.069371
40.0517	15.0301	-0.069381
40.11	15.0188	-0.069399
40.1683	15.0063	-0.069392
40.2267	14.9944	-0.069381
40.285	14.9827	-0.069373
40.3433	14.9708	-0.069359
40.4017	14.9599	-0.069340
40.46	14.9483	-0.069321
40.5183	14.9371	-0.069313
40.5767	14.9243	-0.069312
40.635	14.9123	-0.069308
40.6933	14.902	-0.069349
40.7517	14.8894	-0.069358
40.81	14.8781	-0.069347
40.8683	14.867	-0.069334
40.9267	14.8545	-0.069292
40.985	14.8421	-0.069282
41.0433	14.8309	-0.069254
41.1017	14.8188	-0.069265
41.16	14.8078	-0.069275
41.2183	14.796	-0.069291
41.2767	14.7845	-0.069300
41.335	14.7732	-0.069290
41.3933	14.761	-0.069294
41.4517	14.7499	-0.069303
41.51	14.7384	-0.069270
41.5683	14.7255	-0.069254
41.6267	14.7146	-0.069238
41.685	14.7032	-0.069232
41.7433	14.692	-0.069234
41.8017	14.6797	-0.069231
41.86	14.6682	-0.069227
41.9183	14.6558	-0.069233
41.9767	14.6444	-0.069252
42.035	14.6332	-0.069253
42.0933	14.6212	-0.069262
42.1517	14.6099	-0.069249
42.21	14.5979	-0.069253
42.2683	14.5863	-0.069265
42.3267	14.5739	-0.069255
42.385	14.5618	-0.069244
42.4433	14.5508	-0.069246
42.5017	14.5391	-0.069255
42.56	14.5278	-0.069263
42.6183	14.5161	-0.069285
42.6767	14.504	-0.069264
42.735	14.4929	-0.069260
42.7933	14.4812	-0.069238
42.8517	14.4705	-0.069264
42.91	14.457	-0.069257
42.9683	14.4457	-0.069253
43.0267	14.4339	-0.069271
43.085	14.4225	-0.069244
43.1433	14.4105	-0.069229
43.2017	14.3983	-0.069240
43.26	14.3875	-0.069232
43.3183	14.3761	-0.069240
43.3767	14.3641	-0.069298
43.435	14.3514	-0.069287
43.4933	14.3408	-0.069283
43.5517	14.3284	-0.069268
43.61	14.3171	-0.069248
43.6683	14.3062	-0.069220
43.7267	14.2946	-0.069224
43.785	14.282	-0.069241
43.8433	14.2706	-0.069246
43.9017	14.2599	-0.069273
43.96	14.2481	-0.069274
44.0183	14.2356	-0.069281
44.0767	14.2247	-0.069266
44.135	14.2134	-0.069281
44.1933	14.202	-0.069279
44.2517	14.1884	-0.069259
44.31	14.1784	-0.069233
44.3683	14.1659	-0.069223
44.4267	14.1547	-0.069221
44.485	14.1438	-0.069205
44.5433	14.1311	-0.069199
44.6017	14.1202	-0.069163
44.66	14.1078	-0.069149
44.7183	14.0956	-0.069152
44.7767	14.0849	-0.069121
44.835	14.0729	-0.069119
44.8933	14.0603	-0.069116
44.9517	14.0491	-0.069124
45.01	14.0389	-0.069119
45.0683	14.0261	-0.069137
45.1267	14.0155	-0.069130
45.185	14.0039	-0.069143
45.2433	13.9923	-0.069117
45.3017	13.9795	-0.069115
45.36	13.9679	-0.069110
45.4183	13.9555	-0.069111
45.4767	13.9436	-0.069107
45.535	13.9334	-0.069115
45.5933	13.922	-0.069127
45.6517	13.9087	-0.069106
45.71	13.8971	-0.069102
45.7683	13.8855	-0.069119
45.8267	13.8742	-0.069145
45.885	13.8622	-0.069173
45.9433	13.8516	-0.069185
46.0017	13.8406	-0.069169
46.06	13.829	-0.069163
46.1183	13.8158	-0.069164
46.1767	13.8049	-0.069145
46.235	13.7929	-0.069091
46.2933	13.7808	-0.069092
46.3517	13.7688	-0.069117
46.41	13.7577	-0.069129
46.4683	13.7463	-0.069156
46.5267	13.7337	-0.069146
46.585	13.7224	-0.069163
46.6433	13.7115	-0.069183
46.7017	13.6997	-0.069174
46.76	13.6889	-0.069162
46.8183	13.6769	-0.069135
46.8767	13.6642	-0.069150
46.935	13.6525	-0.069163
46.9933	13.6414	-0.069128
47.0517	13.6296	-0.069172
47.11	13.6173	-0.069157
47.1683	13.6067	-0.069133
47.2267	13.5949	-0.069132
47.285	13.5836	-0.069110
47.3433	13.5721	-0.069096
47.4017	13.559	-0.069119
47.46	13.5477	-0.069112
47.5183	13.5369	-0.069115
47.5767	13.5243	-0.069115
47.635	13.5126	-0.069109
47.6933	13.5016	-0.069096
47.7517	13.4892	-0.069070
47.81	13.4782	-0.069082
47.8683	13.4657	-0.069061
47.9267	13.4553	-0.069060
47.985	13.4429	-0.069034
48.0433	13.4316	-0.069021
48.1017	13.4203	-0.069015
48.16	13.4093	-0.069030
48.2183	13.3964	-0.069031
48.2767	13.3855	-0.068997
48.335	13.3728	-0.068992
48.3933	13.3615	-0.069011
48.4517	13.3489	-0.069031
48.51	13.3387	-0.069032
48.5683	13.3261	-0.069063
48.6267	13.3153	-0.069042
48.685	13.3024	-0.069057
48.7433	13.2919	-0.069029
48.8017	13.279	-0.069027
48.86	13.2674	-0.069018
48.9183	13.2557	-0.069018
48.9767	13.2439	-0.068993
49.035	13.232	-0.068965
49.0933	13.2222	-0.068963
49.1517	13.2101	-0.068976
49.21	13.1973	-0.069003
49.2683	13.1869	-0.069012
49.3267	13.1745	-0.069048
49.385	13.1631	-0.069051
49.4433	13.1526	-0.069055
49.5017	13.139	-0.069049
49.56	13.1267	-0.069026
49.6183	13.1154	-0.069045
49.6767	13.1046	-0.069037
49.735	13.0933	-0.069046
49.7933	13.0814	-0.069057
49.8517	13.0695	-0.069054
49.91	13.0585	-0.069052
49.9683	13.0463	-0.069049
50.0267	13.0344	-0.069023
50.085	13.0225	-0.069018
50.1433	13.0115	-0.069009
50.2017	12.9981	-0.069011
50.26	12.9885	-0.069018
50.3183	12.9761	-0.069037
50.3767	12.9645	-0.069023
50.435	12.9535	-0.069014
50.4933	12.9415	-0.069004
50.5517	12.9293	-0.069003
50.61	12.9184	-0.069004
50.6683	12.9059	-0.069007
50.7267	12.8944	-0.069040
50.785	12.8828	-0.069052
50.8433	12.8715	-0.069068
50.9017	12.8598	-0.069080
50.96	12.848	-0.069081
51.0183	12.8369	-0.069112
51.0767	12.8247	-0.069136
51.135	12.813	-0.069143
51.1933	12.8017	-0.069145
51.2517	12.7897	-0.069137
51.31	12.7779	-0.069123
51.3683	12.7666	-0.069120
51.4267	12.7547	-0.069100
51.485	12.7428	-0.069113
51.5433	12.7317	-0.069098
51.6017	12.7204	-0.069090
51.66	12.7089	-0.069074
51.7183	12.6963	-0.069072
51.7767	12.6858	-0.069056
51.835	12.674	-0.069049
51.8933	12.6619	-0.069085
51.9517	12.6496	-0.069074
52.01	12.6374	-0.069054
52.0683	12.6267	-0.069023
52.1267	12.6149	-0.069028
52.185	12.603	-0.069038
52.2433	12.5913	-0.069025
52.3017	12.5804	-0.069001
52.36	12.5686	-0.069032
52.4183	12.5562	-0.069024
52.4767	12.5448	-0.069020
52.535	12.533	-0.069026
52.5933	12.5214	-0.069045
52.6517	12.5098	-0.069021
52.71	12.499	-0.069035
52.7683	12.4865	-0.068998
52.8267	12.4739	-0.068993
52.885	12.462	-0.068991
52.9433	12.4506	-0.068986
53.0017	12.439	-0.069022
53.06	12.4283	-0.069005
53.1183	12.4168	-0.069019
53.1767	12.4047	-0.069018
53.235	12.393	-0.069002
53.2933	12.3818	-0.069018
53.3517	12.3698	-0.068999
53.41	12.3586	-0.068962
53.4683	12.3452	-0.068930
53.5267	12.3341	-0.068926
53.585	12.3232	-0.068945
53.6433	12.3119	-0.069000
53.7017	12.2995	-0.069093
53.76	12.2876	-0.069198
53.8183	12.2771	-0.069285
53.8767	12.2645	-0.069356
53.935	12.2533	-0.069435
53.9933	12.2413	-0.069472
54.0517	12.229	-0.069503
54.11	12.2169	-0.069513
54.1683	12.2067	-0.069526
54.2267	12.194	-0.069542
54.285	12.1818	-0.069559
54.3433	12.1703	-0.069519
54.4017	12.1595	-0.069516
54.46	12.1477	-0.069542
54.5183	12.1363	-0.069567
54.5767	12.1238	-0.069514
54.635	12.1113	-0.069521
54.6933	12.1008	-0.069528
54.7517	12.0886	-0.069539
54.81	12.0768	-0.069597
54.8683	12.065	-0.069683
54.9267	12.0533	-0.069717
54.985	12.0419	-0.069751
55.0433	12.0305	-0.069833
55.1017	12.02	-0.069831
55.16	12.007	-0.069833
55.2183	11.9958	-0.069849
55.2767	11.9819	-0.069890
55.335	11.9716	-0.069899
55.3933	11.9601	-0.069937
55.4517	11.9487	-0.069991
55.51	11.9364	-0.070058
55.5683	11.9254	-0.070076
55.6267	11.9139	-0.070111
55.685	11.9028	-0.070094
55.7433	11.8904	-0.070058
55.8017	11.8786	-0.070071
55.86	11.8664	-0.070075
55.9183	11.856	-0.070126
55.9767	11.8439	-0.070172
56.035	11.8325	-0.070189
56.0933	11.8202	-0.070190
56.1517	11.8083	-0.070200
56.21	11.7971	-0.070186
56.2683	11.7852	-0.070197
56.3267	11.7739	-0.070181
56.385	11.7615	-0.070155
56.4433	11.7512	-0.070134
56.5017	11.7384	-0.070124
56.56	11.7281	-0.070092
56.6183	11.7156	-0.070079
56.6767	11.7037	-0.070049
56.735	11.6931	-0.070032
56.7933	11.6815	-0.069991
56.8517	11.669	-0.069991
56.91	11.6579	-0.069975
56.9683	11.6454	-0.069953
57.0267	11.6337	-0.069958
57.085	11.6226	-0.069994
57.1433	11.6106	-0.070022
57.2017	11.5992	-0.070021
57.26	11.5878	-0.069992
57.3183	11.5759	-0.069969
57.3767	11.5644	-0.069988
57.435	11.5527	-0.070010
57.4933	11.5417	-0.070019
57.5517	11.5285	-0.069969
57.61	11.5184	-0.069957
57.6683	11.5059	-0.069922
57.7267	11.4943	-0.069885
57.785	11.4827	-0.069896
57.8433	11.47	-0.069879
57.9017	11.4595	-0.069870
57.96	11.4475	-0.069862
58.0183	11.4365	-0.069858
58.0767	11.4244	-0.069821
58.135	11.4118	-0.069800
58.1933	11.4007	-0.069782
58.2517	11.3891	-0.069787
58.31	11.3771	-0.069806
58.3683	11.3651	-0.069839
58.4267	11.354	-0.069819
58.485	11.3425	-0.069796
58.5433	11.3313	-0.069784
58.6017	11.3178	-0.069743
58.66	11.3067	-0.069743
58.7183	11.2961	-0.069718
58.7767	11.2839	-0.069730
58.835	11.2723	-0.069709
58.8933	11.2609	-0.069683
58.9517	11.2492	-0.069680
59.01	11.2373	-0.069677
59.0683	11.2256	-0.069670
59.1267	11.2142	-0.069663
59.185	11.2025	-0.069658
59.2433	11.1903	-0.069607
59.3017	11.1785	-0.069610
59.36	11.1678	-0.069608
59.4183	11.1563	-0.069607
59.4767	11.1452	-0.069603
59.535	11.1325	-0.069631
59.5933	11.1215	-0.069667
59.6517	11.1079	-0.069672
59.71	11.0982	-0.069647
59.7683	11.0851	-0.069655
59.8267	11.0738	-0.069635
59.885	11.0617	-0.069649
59.9433	11.0504	-0.069707
60.0017	11.0396	-0.069725
60.06	11.0274	-0.069771
60.1183	11.0165	-0.069803
60.1767	11.0048	-0.069776
60.235	10.9915	-0.069742
60.2933	10.9816	-0.069734
60.3517	10.9683	-0.069699
60.41	10.9564	-0.069657
60.4683	10.9472	-0.069653
60.5267	10.9334	-0.069646
60.585	10.9223	-0.069664
60.6433	10.9109	-0.069663
60.7017	10.8987	-0.069644
60.76	10.8875	-0.069645
60.8183	10.8748	-0.069658
60.8767	10.8642	-0.069627
60.935	10.8522	-0.069626
60.9933	10.8409	-0.069617
61.0517	10.829	-0.069589
61.11	10.818	-0.069570
61.1683	10.8055	-0.069548
61.2267	10.795	-0.069500
61.285	10.7831	-0.069501
61.3433	10.7717	-0.069528
61.4017	10.759	-0.069537
61.46	10.7476	-0.069540
61.5183	10.7363	-0.069515
61.5767	10.7245	-0.069514
61.635	10.7129	-0.069526
61.6933	10.7009	-0.069529
61.7517	10.6898	-0.069532
61.81	10.6779	-0.069508
61.8683	10.6662	-0.069488
61.9267	10.6545	-0.069491
61.985	10.6427	-0.069526
62.0433	10.6314	-0.069546
62.1017	10.6185	-0.069535
62.16	10.6078	-0.069511
62.2183	10.5963	-0.069560
62.2767	10.5844	-0.069598
62.335	10.573	-0.069583
62.3933	10.5606	-0.069580
62.4517	10.5493	-0.069563
62.51	10.5379	-0.069549
62.5683	10.5251	-0.069548
62.6267	10.5141	-0.069538
62.685	10.5026	-0.069520
62.7433	10.4906	-0.069490
62.8017	10.4788	-0.069484
62.86	10.4672	-0.069479
62.9183	10.4566	-0.069476
62.9767	10.4443	-0.069502
63.035	10.4331	-0.069520
63.0933	10.4213	-0.069488
63.1517	10.4096	-0.069497
63.21	10.3977	-0.069511
63.2683	10.3853	-0.069502
63.3267	10.3742	-0.069506
63.385	10.3636	-0.069516
63.4433	10.3515	-0.069496
63.5017	10.3397	-0.069478
63.56	10.3281	-0.069475
63.6183	10.3163	-0.069483
63.6767	10.3046	-0.069473
63.735	10.2941	-0.069458
63.7933	10.2805	-0.069482
63.8517	10.2693	-0.069456
63.91	10.2585	-0.069452
63.9683	10.246	-0.069453
64.0267	10.2346	-0.069451
64.085	10.2226	-0.069422
64.1433	10.2106	-0.069413
64.2017	10.1989	-0.069390
64.26	10.1875	-0.069392
64.3183	10.1757	-0.069390
64.3767	10.1647	-0.069417
64.435	10.153	-0.069412
64.4933	10.1408	-0.069410
64.5517	10.1302	-0.069395
64.61	10.1172	-0.069357
64.6683	10.1057	-0.069360
64.7267	10.0939	-0.069355
64.785	10.0832	-0.069370
64.8433	10.0702	-0.069395
64.9017	10.0589	-0.069427
64.96	10.0479	-0.069433
65.0183	10.0366	-0.069456
65.0767	10.0241	-0.069440
65.135	10.013	-0.069458
65.1933	10.0003	-0.069447
65.2517	9.989213	-0.069426
65.31	9.976327	-0.069398
65.3683	9.966905	-0.069403
65.4267	9.954165	-0.069412
65.485	9.942226	-0.069395
65.5433	9.930836	-0.069406
65.6017	9.919039	-0.069390
65.66	9.908578	-0.069401
65.7183	9.895439	-0.069385
65.7767	9.883057	-0.069375
65.835	9.872974	-0.069385
65.8933	9.860984	-0.069354
65.9517	9.850128	-0.069355
66.01	9.838193	-0.069350
66.0683	9.826330	-0.069341
66.1267	9.814216	-0.069332
66.185	9.802823	-0.069338
66.2433	9.791011	-0.069325
66.3017	9.780549	-0.069328
66.36	9.768035	-0.069316
66.4183	9.756292	-0.069282
66.4767	9.744529	-0.069323
66.535	9.733623	-0.069312
66.5933	9.721607	-0.069314
66.6517	9.709682	-0.069322
66.71	9.698172	-0.069316
66.7683	9.686759	-0.069309
66.8267	9.674364	-0.069298
66.885	9.662960	-0.069322
66.9433	9.651098	-0.069323
67.0017	9.639645	-0.069330
67.06	9.628024	-0.069339
67.1183	9.614771	-0.069327
67.1767	9.605883	-0.069332
67.235	9.594174	-0.069323
67.2933	9.581531	-0.069311
67.3517	9.569607	-0.069311
67.41	9.557177	-0.069283
67.4683	9.545993	-0.069272
67.5267	9.535024	-0.069290
67.585	9.522858	-0.069287
67.6433	9.510991	-0.069289
67.7017	9.500134	-0.069271
67.76	9.487430	-0.069255
67.8183	9.476855	-0.069275
67.8767	9.464967	-0.069268
67.935	9.452165	-0.069293
67.9933	9.440889	-0.069270
68.0517	9.428995	-0.069269
68.11	9.418221	-0.069272
68.1683	9.406442	-0.069279
68.2267	9.394830	-0.069305
68.285	9.382372	-0.069297
68.3433	9.370965	-0.069275
68.4017	9.360912	-0.069278
68.46	9.347573	-0.069287
68.5183	9.336081	-0.069267
68.5767	9.325357	-0.069264
68.635	9.313178	-0.069245
68.6933	9.301677	-0.069228
68.7517	9.289855	-0.069219
68.81	9.278104	-0.069236
68.8683	9.266925	-0.069235
68.9267	9.255365	-0.069249
68.985	9.242926	-0.069280
69.0433	9.231628	-0.069251
69.1017	9.219218	-0.069235
69.16	9.207568	-0.069223
69.2183	9.196928	-0.069225
69.2767	9.184916	-0.069241
69.335	9.173451	-0.069206
69.3933	9.161523	-0.069222
69.4517	9.149915	-0.069213
69.51	9.139019	-0.069233
69.5683	9.126629	-0.069232
69.6267	9.115426	-0.069214
69.685	9.102139	-0.069180
69.7433	9.090265	-0.069140
69.8017	9.079215	-0.069125
69.86	9.067848	-0.069119
69.9183	9.056004	-0.069122
69.9767	9.044798	-0.069130
70.035	9.032427	-0.069108
70.0933	9.021806	-0.069105
70.1517	9.010118	-0.069115
70.21	8.998582	-0.069136
70.2683	8.986479	-0.069127
70.3267	8.974431	-0.069145
70.385	8.962180	-0.069115
70.4433	8.950971	-0.069142
70.5017	8.939178	-0.069136
70.56	8.927436	-0.069151
70.6183	8.917350	-0.069172
70.6767	8.904534	-0.069161
70.735	8.893010	-0.069145
70.7933	8.881947	-0.069108
70.8517	8.869241	-0.069114
70.91	8.858262	-0.069102
70.9683	8.845790	-0.069130
71.0267	8.833598	-0.069138
71.085	8.823780	-0.069143
71.1433	8.810672	-0.069141
71.2017	8.801167	-0.069128
71.26	8.788263	-0.069171
71.3183	8.775641	-0.069170
71.3767	8.765224	-0.069147
71.435	8.752873	-0.069142
71.4933	8.741179	-0.069128
71.5517	8.728466	-0.069135
71.61	8.718564	-0.069125
71.6683	8.706073	-0.069104
71.7267	8.695431	-0.069087
71.785	8.682995	-0.069069
71.8433	8.672194	-0.069069
71.9017	8.659230	-0.069090
71.96	8.647243	-0.069111
72.0183	8.635909	-0.069126
72.0767	8.624426	-0.069151
72.135	8.612914	-0.069157
72.1933	8.600878	-0.069150
72.2517	8.589861	-0.069168
72.31	8.578331	-0.069164
72.3683	8.566184	-0.069169
72.4267	8.553732	-0.069176
72.485	8.542592	-0.069197
72.5433	8.532242	-0.069198
72.6017	8.520733	-0.069170
72.66	8.508558	-0.069128
72.7183	8.496972	-0.069115
72.7767	8.484604	-0.069105
72.835	8.472854	-0.069088
72.8933	8.462267	-0.069062
72.9517	8.450324	-0.069021
73.01	8.437451	-0.069024
73.0683	8.426691	-0.069010
73.1267	8.415440	-0.069039
73.185	8.402385	-0.069048
73.2433	8.391179	-0.069055
73.3017	8.380444	-0.069083
73.36	8.368893	-0.069085
73.4183	8.356082	-0.069098
73.4767	8.345078	-0.069090
73.535	8.333516	-0.069099
73.5933	8.321700	-0.069096
73.6517	8.308952	-0.069069
73.71	8.296793	-0.069076
73.7683	8.287352	-0.069103
73.8267	8.275271	-0.069113
73.885	8.262777	-0.069104
73.9433	8.251536	-0.069094
74.0017	8.240172	-0.069075
74.06	8.228352	-0.069045
74.1183	8.217282	-0.069025
74.1767	8.205557	-0.069009
74.235	8.193457	-0.069006
74.2933	8.181491	-0.069015
74.3517	8.169984	-0.069000
74.41	8.158767	-0.069004
74.4683	8.147112	-0.068987
74.5267	8.135409	-0.069001
74.585	8.123028	-0.069025
74.6433	8.112161	-0.069009
74.7017	8.100234	-0.069034
74.76	8.088210	-0.069037
74.8183	8.076107	-0.069016
74.8767	8.064466	-0.069025
74.935	8.053293	-0.069061
74.9933	8.040923	-0.069069
75.0517	8.030080	-0.069039
75.11	8.017510	-0.069004
75.1683	8.004894	-0.069020
75.2267	7.994916	-0.069030
75.285	7.984075	-0.069012
75.3433	7.971615	-0.068994
75.4017	7.959003	-0.068955
75.46	7.948695	-0.068939
75.5183	7.935813	-0.068937
75.5767	7.925364	-0.068909
75.635	7.913835	-0.068901
75.6933	7.900334	-0.068879
75.7517	7.890184	-0.068892
75.81	7.877748	-0.068940
75.8683	7.866758	-0.068920
75.9267	7.854748	-0.068916
75.985	7.843407	-0.068933
76.0433	7.831033	-0.068938
76.1017	7.819642	-0.068938
76.16	7.807900	-0.068938
76.2183	7.797493	-0.068949
76.2767	7.784657	-0.068949
76.335	7.772513	-0.068980
76.3933	7.760821	-0.068975
76.4517	7.750256	-0.068987
76.51	7.737748	-0.069004
76.5683	7.726102	-0.068967
76.6267	7.714669	-0.068979
76.685	7.703645	-0.068987
76.7433	7.691985	-0.068977
76.8017	7.679773	-0.068980
76.86	7.668748	-0.068979
76.9183	7.656621	-0.068959
76.9767	7.645354	-0.068941
77.035	7.632501	-0.068924
77.0933	7.622298	-0.068911
77.1517	7.610105	-0.068917
77.21	7.598709	-0.068887
77.2683	7.586829	-0.068875
77.3267	7.575412	-0.068901
77.385	7.562340	-0.068915
77.4433	7.551037	-0.068908
77.5017	7.540167	-0.068916
77.56	7.527095	-0.068926
77.6183	7.516467	-0.068920
77.6767	7.504015	-0.068922
77.735	7.491906	-0.068939
77.7933	7.481816	-0.068924
77.8517	7.470219	-0.068895
77.91	7.458644	-0.068887
77.9683	7.446143	-0.068832
78.0267	7.435327	-0.068826
78.085	7.423220	-0.068853
78.1433	7.411586	-0.068837
78.2017	7.400002	-0.068846
78.26	7.387564	-0.068815
78.3183	7.377898	-0.068812
78.3767	7.364069	-0.068821
78.435	7.353875	-0.068821
78.4933	7.340561	-0.068830
78.5517	7.330185	-0.068841
78.61	7.317843	-0.068848
78.6683	7.306695	-0.068874
78.7267	7.294444	-0.068855
78.785	7.283912	-0.068858
78.8433	7.271531	-0.068828
78.9017	7.260444	-0.068838
78.96	7.247237	-0.068845
79.0183	7.236951	-0.068833
79.0767	7.224312	-0.068824
79.135	7.213637	-0.068860
79.1933	7.201992	-0.068912
79.2517	7.189673	-0.068908
79.31	7.178289	-0.068922
79.3683	7.165938	-0.068900
79.4267	7.155542	-0.068908
79.485	7.142782	-0.068901
79.5433	7.131519	-0.068874
79.6017	7.119560	-0.068869
79.66	7.108366	-0.068863
79.7183	7.095198	-0.068868
79.7767	7.083518	-0.068875
79.835	7.072995	-0.068882
79.8933	7.061600	-0.068897
79.9517	7.049910	-0.068905
80.01	7.037895	-0.068915
80.0683	7.025527	-0.068911
80.1267	7.014396	-0.068909
80.185	7.001886	-0.068938
80.2433	6.990724	-0.068930
80.3017	6.979933	-0.068968
80.36	6.968975	-0.068972
80.4183	6.956505	-0.068929
80.4767	6.944458	-0.068922
80.535	6.934398	-0.068925
80.5933	6.920638	-0.068908
80.6517	6.909796	-0.068918
80.71	6.898320	-0.068886
80.7683	6.886959	-0.068887
80.8267	6.875977	-0.068906
80.885	6.863421	-0.068920
80.9433	6.851434	-0.068922
81.0017	6.840302	-0.068919
81.06	6.828922	-0.068939
81.1183	6.816981	-0.068915
81.1767	6.805439	-0.068921
81.235	6.793590	-0.068935
81.2933	6.781594	-0.068944
81.3517	6.769301	-0.068943
81.41	6.759053	-0.068965
81.4683	6.745999	-0.068953
81.5267	6.735177	-0.068947
81.585	6.723736	-0.068927
81.6433	6.711129	-0.068896
81.7017	6.700601	-0.068878
81.76	6.688386	-0.068876
81.8183	6.676477	-0.068847
81.8767	6.665084	-0.068838
81.935	6.652080	-0.068821
81.9933	6.641448	-0.068787
82.0517	6.629791	-0.068792
82.11	6.617307	-0.068796
82.1683	6.606622	-0.068779
82.2267	6.595268	-0.068779
82.285	6.582833	-0.068781
82.3433	6.571419	-0.068780
82.4017	6.559460	-0.068763
82.46	6.548731	-0.068764
82.5183	6.535552	-0.068745
82.5767	6.524304	-0.068746
82.635	6.513103	-0.068735
82.6933	6.502184	-0.068742
82.7517	6.490637	-0.068774
82.81	6.477708	-0.068790
82.8683	6.467473	-0.068791
82.9267	6.456356	-0.068799
82.985	6.444329	-0.068805
83.0433	6.431973	-0.068796
83.1017	6.419893	-0.068790
83.16	6.408490	-0.068790
83.2183	6.395374	-0.068830
83.2767	6.385462	-0.068828
83.335	6.374084	-0.068859
83.3933	6.360490	-0.068885
83.4517	6.349243	-0.068890
83.51	6.338477	-0.068902
83.5683	6.325500	-0.068880
83.6267	6.313942	-0.068860
83.685	6.302835	-0.068879
83.7433	6.291569	-0.068903
83.8017	6.280886	-0.068898
83.86	6.268849	-0.068859
83.9183	6.257298	-0.068863
83.9767	6.245135	-0.068851
84.035	6.233897	-0.068853
84.0933	6.221833	-0.068830
84.1517	6.210329	-0.068827
84.21	6.197793	-0.068826
84.2683	6.186970	-0.068829
84.3267	6.175189	-0.068847
84.385	6.163326	-0.068850
84.4433	6.151832	-0.068849
84.5017	6.139781	-0.068852
84.56	6.128392	-0.068834
84.6183	6.117702	-0.068864
84.6767	6.105091	-0.068863
84.735	6.092756	-0.068857
84.7933	6.082231	-0.068890
84.8517	6.070356	-0.068897
84.91	6.058370	-0.068884
84.9683	6.046211	-0.068901
85.0267	6.035299	-0.068923
85.085	6.022913	-0.068926
85.1433	6.012003	-0.068920
85.2017	5.999836	-0.068946
85.26	5.988719	-0.068917
85.3183	5.976847	-0.068929
85.3767	5.965110	-0.068925
85.435	5.953799	-0.068935
85.4933	5.942126	-0.068951
85.5517	5.930664	-0.068934
85.61	5.918783	-0.068930
85.6683	5.907239	-0.068927
85.7267	5.895504	-0.068892
85.785	5.883265	-0.068865
85.8433	5.871574	-0.068843
85.9017	5.860792	-0.068814
85.96	5.849148	-0.068798
86.0183	5.837014	-0.068794
86.0767	5.824578	-0.068791
86.135	5.812842	-0.068770
86.1933	5.801360	-0.068793
86.2517	5.789616	-0.068787
86.31	5.778762	-0.068777
86.3683	5.767540	-0.068799
86.4267	5.754680	-0.068793
86.485	5.743848	-0.068800
86.5433	5.731451	-0.068777
86.6017	5.720242	-0.068762
86.66	5.707351	-0.068770
86.7183	5.697239	-0.068761
86.7767	5.685155	-0.068768
86.835	5.672924	-0.068793
86.8933	5.661726	-0.068803
86.9517	5.649412	-0.068809
87.01	5.638564	-0.068822
87.0683	5.626322	-0.068860
87.1267	5.615380	-0.068865
87.185	5.602762	-0.068871
87.2433	5.591617	-0.068868
87.3017	5.580657	-0.068853
87.36	5.568162	-0.068822
87.4183	5.556537	-0.068810
87.4767	5.545961	-0.068833
87.535	5.532637	-0.068830
87.5933	5.523323	-0.068804
87.6517	5.510184	-0.068821
87.71	5.497186	-0.068788
87.7683	5.486820	-0.068787
87.8267	5.474783	-0.068803
87.885	5.463841	-0.068798
87.9433	5.451150	-0.068797
88.0017	5.440019	-0.068803
88.06	5.428081	-0.068791
88.1183	5.416399	-0.068787
88.1767	5.405313	-0.068774
88.235	5.393556	-0.068761
88.2933	5.380712	-0.068758
88.3517	5.370254	-0.068747
88.41	5.358594	-0.068728
88.4683	5.347003	-0.068733
88.5267	5.336471	-0.068742
88.585	5.324129	-0.068747
88.6433	5.312109	-0.068730
88.7017	5.300182	-0.068763
88.76	5.288344	-0.068787
88.8183	5.277432	-0.068786
88.8767	5.265257	-0.068778
88.935	5.254624	-0.068769
88.9933	5.242442	-0.068803
89.0517	5.230047	-0.068810
89.11	5.217872	-0.068801
89.1683	5.207734	-0.068791
89.2267	5.195341	-0.068786
89.285	5.183225	-0.068767
89.3433	5.172483	-0.068781
89.4017	5.159584	-0.068770
89.46	5.148829	-0.068753
89.5183	5.137039	-0.068749
89.5767	5.124659	-0.068768
89.635	5.113626	-0.068761
89.6933	5.101937	-0.068755
89.7517	5.089989	-0.068756
89.81	5.078409	-0.068808
89.8683	5.066768	-0.068818
89.9267	5.055373	-0.068829
89.985	5.043298	-0.068829
90.0433	5.030359	-0.068832
90.1017	5.019617	-0.068812
90.16	5.007817	-0.068777
90.2183	4.995975	-0.068749
90.2767	4.985361	-0.068759
90.335	4.973443	-0.068772
90.3933	4.962364	-0.068784
90.4517	4.950759	-0.068805
90.51	4.937608	-0.068811
90.5683	4.926728	-0.068808
90.6267	4.914578	-0.068805
90.685	4.904765	-0.068782
90.7433	4.891930	-0.068778
90.8017	4.881314	-0.068777
90.86	4.869631	-0.068768
90.9183	4.856764	-0.068754
90.9767	4.844977	-0.068748
91.035	4.834452	-0.068763
91.0933	4.822142	-0.068759
91.1517	4.810404	-0.068763
91.21	4.798464	-0.068765
91.2683	4.785764	-0.068762
91.3267	4.775511	-0.068750
91.385	4.763659	-0.068736
91.4433	4.751431	-0.068738
91.5017	4.739417	-0.068734
91.56	4.728913	-0.068740
91.6183	4.716442	-0.068740
91.6767	4.704712	-0.068739
91.735	4.694057	-0.068749
91.7933	4.681325	-0.068762
91.8517	4.670617	-0.068776
91.91	4.657618	-0.068803
91.9683	4.646837	-0.068807
92.0267	4.634434	-0.068787
92.085	4.623949	-0.068777
92.1433	4.611199	-0.068764
92.2017	4.600482	-0.068778
92.26	4.589052	-0.068787
92.3183	4.577214	-0.068791
92.3767	4.564427	-0.068765
92.435	4.554016	-0.068755
92.4933	4.542972	-0.068766
92.5517	4.529783	-0.068757
92.61	4.518367	-0.068792
92.6683	4.506636	-0.068754
92.7267	4.495371	-0.068755
92.785	4.482581	-0.068785
92.8433	4.471418	-0.068799
92.9017	4.460101	-0.068785
92.96	4.448086	-0.068794
93.0183	4.437267	-0.068800
93.0767	4.424639	-0.068787
93.135	4.413625	-0.068766
93.1933	4.401533	-0.068764
93.2517	4.389736	-0.068748
93.31	4.378308	-0.068753
93.3683	4.367969	-0.068744
93.4267	4.356436	-0.068762
93.485	4.343936	-0.068758
93.5433	4.331354	-0.068762
93.6017	4.319724	-0.068735
93.66	4.308935	-0.068736
93.7183	4.297462	-0.068738
93.7767	4.284603	-0.068748
93.835	4.274109	-0.068735
93.8933	4.262099	-0.068731
93.9517	4.249993	-0.068728
94.01	4.237679	-0.068743
94.0683	4.227060	-0.068769
94.1267	4.215590	-0.068800
94.185	4.203413	-0.068825
94.2433	4.193005	-0.068814
94.3017	4.180550	-0.068816
94.36	4.168246	-0.068871
94.4183	4.158610	-0.068863
94.4767	4.144654	-0.068852
94.535	4.134562	-0.068864
94.5933	4.122481	-0.068872
94.6517	4.110175	-0.068887
94.71	4.098282	-0.068876
94.7683	4.086782	-0.068877
94.8267	4.075735	-0.068892
94.885	4.061902	-0.068902
94.9433	4.050503	-0.068923
95.0017	4.039890	-0.068928
95.06	4.029788	-0.068937
95.1183	4.016738	-0.068923
95.1767	4.006217	-0.068910
95.235	3.994068	-0.068905
95.2933	3.981551	-0.068904
95.3517	3.970579	-0.068902
95.41	3.959389	-0.068893
95.4683	3.947501	-0.068896
95.5267	3.935791	-0.068879
95.585	3.923931	-0.068865
95.6433	3.911176	-0.068844
95.7017	3.900121	-0.068828
95.76	3.887215	-0.068813
95.8183	3.876153	-0.068807
95.8767	3.865856	-0.068806
95.935	3.853188	-0.068805
95.9933	3.842290	-0.068811
96.0517	3.829930	-0.068843
96.11	3.818370	-0.068822
96.1683	3.806640	-0.068819
96.2267	3.795150	-0.068844
96.285	3.783482	-0.068864
96.3433	3.771472	-0.068892
96.4017	3.759913	-0.068926
96.46	3.749013	-0.068910
96.5183	3.738224	-0.068891
96.5767	3.725030	-0.068932
96.635	3.714351	-0.068912
96.6933	3.702598	-0.068933
96.7517	3.690333	-0.068940
96.81	3.680015	-0.068892
96.8683	3.667391	-0.068900
96.9267	3.655715	-0.068873
96.985	3.643500	-0.068836
97.0433	3.631630	-0.068833
97.1017	3.620862	-0.068847
97.16	3.608936	-0.068865
97.2183	3.597195	-0.068868
97.2767	3.584917	-0.068842
97.335	3.572952	-0.068861
97.3933	3.561915	-0.068851
97.4517	3.550138	-0.068852
97.51	3.538621	-0.068833
97.5683	3.527300	-0.068828
97.6267	3.515359	-0.068809
97.685	3.503676	-0.068824
97.7433	3.492411	-0.068831
97.8017	3.479977	-0.068845
97.86	3.467940	-0.068830
97.9183	3.456906	-0.068845
97.9767	3.445233	-0.068847
98.035	3.432735	-0.068856
98.0933	3.421283	-0.068834
98.1517	3.409479	-0.068829
98.21	3.400153	-0.068834
98.2683	3.387380	-0.068861
98.3267	3.375280	-0.068847
98.385	3.364288	-0.068859
98.4433	3.352373	-0.068860
98.5017	3.341621	-0.068837
98.56	3.328723	-0.068854
98.6183	3.317586	-0.068841
98.6767	3.304400	-0.068811
98.735	3.293744	-0.068837
98.7933	3.281468	-0.068861
98.8517	3.270515	-0.068855
98.91	3.258746	-0.068846
98.9683	3.247030	-0.068829
99.0267	3.235506	-0.068819
99.085	3.223989	-0.068846
99.1433	3.211828	-0.068819
99.2017	3.199910	-0.068821
99.26	3.188880	-0.068833
99.3183	3.177628	-0.068845
99.3767	3.165120	-0.068851
99.435	3.152344	-0.068903
99.4933	3.141997	-0.068898
99.5517	3.131348	-0.068901
99.61	3.119093	-0.068921
99.6683	3.106749	-0.068939
99.7267	3.095082	-0.068955
99.785	3.083172	-0.068934
99.8433	3.072068	-0.068917
99.9017	3.060524	-0.068878
99.96	3.048981	-0.068887
100.018	3.037492	-0.068868
100.077	3.025106	-0.068848
100.135	3.013069	-0.068834
100.193	3.001412	-0.068817
100.252	2.990798	-0.068820
100.31	2.979271	-0.068868
100.368	2.966815	-0.068882
100.427	2.955550	-0.068895
100.485	2.943321	-0.068893
100.543	2.932668	-0.068866
100.602	2.920694	-0.068872
100.66	2.908110	-0.068848
100.718	2.896700	-0.068822
100.777	2.884959	-0.068794
100.835	2.873040	-0.068790
100.893	2.862109	-0.068843
100.952	2.849259	-0.068856
101.01	2.839244	-0.068848
101.068	2.827372	-0.068853
101.127	2.815422	-0.068856
101.185	2.804346	-0.068840
101.243	2.791611	-0.068830
101.302	2.779927	-0.068825
101.36	2.768338	-0.068801
101.418	2.757001	-0.068800
101.477	2.744214	-0.068793
101.535	2.733756	-0.068804
101.593	2.721627	-0.068794
101.652	2.710117	-0.068760
101.71	2.699109	-0.068746
101.768	2.687068	-0.068737
101.827	2.675802	-0.068706
101.885	2.664348	-0.068721
101.943	2.652169	-0.068745
102.002	2.639164	-0.068732
102.06	2.628447	-0.068705
102.118	2.617888	-0.068690
102.177	2.606098	-0.068684
102.235	2.594383	-0.068722
102.293	2.581777	-0.068735
102.352	2.569972	-0.068739
102.41	2.559477	-0.068719
102.468	2.546695	-0.068722
102.527	2.535474	-0.068744
102.585	2.524774	-0.068745
102.643	2.512629	-0.068767
102.702	2.500971	-0.068744
102.76	2.488097	-0.068751
102.818	2.477964	-0.068775
102.877	2.464745	-0.068804
102.935	2.453916	-0.068807
102.993	2.442323	-0.068819
103.052	2.430192	-0.068841
103.11	2.418235	-0.068870
103.168	2.407305	-0.068863
103.227	2.395143	-0.068866
103.285	2.384572	-0.068827
103.343	2.372432	-0.068808
103.402	2.359667	-0.068802
103.46	2.348021	-0.068788
103.518	2.336760	-0.068788
103.577	2.324888	-0.068783
103.635	2.313976	-0.068819
103.693	2.301297	-0.068848
103.752	2.290540	-0.068847
103.81	2.279124	-0.068821
103.868	2.266524	-0.068801
103.927	2.254928	-0.068764
103.985	2.242510	-0.068771
104.043	2.232532	-0.068771
104.102	2.219725	-0.068771
104.16	2.209216	-0.068781
104.218	2.197432	-0.068764
104.277	2.185599	-0.068748
104.335	2.174587	-0.068717
104.393	2.162329	-0.068735
104.452	2.151608	-0.068726
104.51	2.139260	-0.068733
104.568	2.127895	-0.068745
104.627	2.115682	-0.068729
104.685	2.103222	-0.068746
104.743	2.092927	-0.068764
104.802	2.081791	-0.068771
104.86	2.069513	-0.068741
104.918	2.056991	-0.068715
104.977	2.046025	-0.068738
105.035	2.034096	-0.068727
105.093	2.021222	-0.068745
105.152	2.011167	-0.068745
105.21	1.998840	-0.068713
105.268	1.986687	-0.068714
105.327	1.974606	-0.068740
105.385	1.962965	-0.068751
105.443	1.951963	-0.068755
105.502	1.940011	-0.068768
105.56	1.927969	-0.068768
105.618	1.916559	-0.068763
105.677	1.904676	-0.068806
105.735	1.892757	-0.068794
105.793	1.882653	-0.068788
105.852	1.870206	-0.068781
105.91	1.859902	-0.068803
105.968	1.846124	-0.068777
106.027	1.834839	-0.068776
106.085	1.823773	-0.068778
106.143	1.812285	-0.068747
106.202	1.800829	-0.068726
106.26	1.788643	-0.068727
106.318	1.777177	-0.068733
106.377	1.764453	-0.068725
106.435	1.754784	-0.068754
106.493	1.742143	-0.068783
106.552	1.730084	-0.068785
106.61	1.719622	-0.068809
106.668	1.707394	-0.068804
106.727	1.694625	-0.068799
106.785	1.683052	-0.068787
106.843	1.672159	-0.068789
106.902	1.659443	-0.068771
106.96	1.648412	-0.068755
107.018	1.635899	-0.068757
107.077	1.625812	-0.068780
107.135	1.614565	-0.068769
107.193	1.601636	-0.068761
107.252	1.591737	-0.068763
107.31	1.578180	-0.068753
107.368	1.566989	-0.068725
107.427	1.556862	-0.068726
107.485	1.543689	-0.068728
107.543	1.533004	-0.068720
107.602	1.520415	-0.068723
107.66	1.508281	-0.068736
107.718	1.497027	-0.068766
107.777	1.484221	-0.068767
107.835	1.474070	-0.068759
107.893	1.462650	-0.068724
107.952	1.451305	-0.068725
108.01	1.439294	-0.068736
108.068	1.427415	-0.068746
108.127	1.415197	-0.068724
108.185	1.404074	-0.068711
108.243	1.392523	-0.068707
108.302	1.380369	-0.068688
108.36	1.368799	-0.068681
108.418	1.357682	-0.068695
108.477	1.345227	-0.068682
108.535	1.334205	-0.068715
108.593	1.322933	-0.068741
108.652	1.310304	-0.068726
108.71	1.299236	-0.068745
108.768	1.286341	-0.068760
108.827	1.275727	-0.068756
108.885	1.264833	-0.068757
108.943	1.252269	-0.068804
109.002	1.240252	-0.068822
109.06	1.229266	-0.068841
109.118	1.217269	-0.068820
109.177	1.205663	-0.068845
109.235	1.193829	-0.068860
109.293	1.181822	-0.068862
109.352	1.169649	-0.068856
109.41	1.158216	-0.068849
109.468	1.146845	-0.068835
109.527	1.135059	-0.068819
109.585	1.123578	-0.068841
109.643	1.112740	-0.068834
109.702	1.100188	-0.068806
109.76	1.089704	-0.068792
109.818	1.077573	-0.068799
109.877	1.065479	-0.068787
109.935	1.053584	-0.068776
109.993	1.043071	-0.068791
110.052	1.030252	-0.068770
110.11	1.019111	-0.068777
110.168	1.007102	-0.068794
110.227	0.996385	-0.068803
110.285	0.984154	-0.068827
110.343	0.971147	-0.068852
110.402	0.960436	-0.068853
110.46	0.948451	-0.068847
110.518	0.936753	-0.068831
110.577	0.925758	-0.068817
110.635	0.913453	-0.068813
110.693	0.902620	-0.068836
110.752	0.890151	-0.068854
110.81	0.878192	-0.068868
110.868	0.866320	-0.068859
110.927	0.856472	-0.068849
110.985	0.843659	-0.068853
111.043	0.832336	-0.068845
111.102	0.819766	-0.068835
111.16	0.807640	-0.068840
111.218	0.797190	-0.068833
111.277	0.785104	-0.068849
111.335	0.773945	-0.068841
111.393	0.762136	-0.068845
111.452	0.751257	-0.068841
111.51	0.738927	-0.068865
111.568	0.727801	-0.068861
111.627	0.716846	-0.068837
111.685	0.704419	-0.068843
111.743	0.691948	-0.068856
111.802	0.680433	-0.068886
111.86	0.668210	-0.068902
111.918	0.657054	-0.068887
111.977	0.645758	-0.068890
112.035	0.633398	-0.068871
112.093	0.621244	-0.068886
112.152	0.610434	-0.068857
112.21	0.598947	-0.068834
112.268	0.587194	-0.068820
112.327	0.575366	-0.068829
112.385	0.564193	-0.068837
112.443	0.552218	-0.068816
112.502	0.540617	-0.068816
112.56	0.528306	-0.068835
112.618	0.516850	-0.068847
112.677	0.504486	-0.068856
112.735	0.494411	-0.068888
112.793	0.481290	-0.068913
112.852	0.470382	-0.068931
112.91	0.458773	-0.068947
112.968	0.446960	-0.068969
113.027	0.435530	-0.068948
113.085	0.424235	-0.068938
113.143	0.412336	-0.068927
113.202	0.400503	-0.068913
113.26	0.388985	-0.068902
113.318	0.376908	-0.068914
113.377	0.365130	-0.068913
113.435	0.354190	-0.068877
113.493	0.341954	-0.068885
113.552	0.330391	-0.068880
113.61	0.318711	-0.068884
113.668	0.307430	-0.068885
113.727	0.295821	-0.068873
113.785	0.284012	-0.068854
113.843	0.272447	-0.068841
113.902	0.260501	-0.068834
113.96	0.248818	-0.068850
114.018	0.237157	-0.068833
114.077	0.225075	-0.068847
114.135	0.214200	-0.068866
114.193	0.202020	-0.068852
114.252	0.189543	-0.068831
114.31	0.179754	-0.068817
114.368	0.166512	-0.068797
114.427	0.155589	-0.068795
114.485	0.144186	-0.068820
114.543	0.132432	-0.068814
114.602	0.121294	-0.068846
114.66	0.109128	-0.068851
114.718	0.096889	-0.068842
114.777	0.086436	-0.068839
114.835	0.073159	-0.068855
114.893	0.063328	-0.068810
114.952	0.050906	-0.068795
114.99	0.043461	-0.068797